,accx,accy,accz
0,5.012288,11.264028,0.95342433;
1,4.903325,10.882658,-0.08172209;
2,-0.61291564,18.496431,3.0237172;
3,-1.1849703,12.108489,7.205164;
4,1.3756552,-2.4925237,-6.510526;
5,-0.61291564,10.56939,5.706926;
6,-0.50395286,13.947236,7.0553403;
7,-8.430995,11.413852,5.134871;
8,0.95342433,1.3756552,1.6480621;
9,-8.19945,19.57244,2.7240696;
10,1.4165162,5.7886477,2.982856;
11,-1.879608,-2.982856,-0.29964766;
12,-6.1291566,6.851035,-8.158588;
13,5.829509,18.0061,8.539958;
14,6.2789803,2.982856,2.9147544;
15,-1.56634,8.308413,-1.4573772;
16,3.5276701,13.593107,9.425281;
17,-2.0294318,-5.706926,-10.18802;
18,2.7649305,10.337844,-9.724928;
19,3.568531,13.6748295,1.5390993;
20,-0.50395286,3.8681788,3.718355;
21,-2.3018389,1.6889231,0.08172209;
22,-3.568531,19.57244,6.510526;
23,-0.8036005,-3.2961242,-4.630918;
24,0.50395286,10.841797,13.525005;
25,5.706926,15.595298,6.1700177;
26,-8.662541,7.273266,4.0180025;
27,-1.334794,1.2258313,2.3699405;
28,-4.5900574,19.57244,4.7126403;
29,3.8681788,3.759216,0.84446156;
30,-1.7978859,1.5390993,8.730643;
31,7.668256,11.264028,-1.3075534;
32,-2.3699405,14.2877445,8.281172;
33,2.7240696,1.4573772,0.88532263;
34,-3.5957718,18.659876,-0.6537767;
35,3.9499009,4.140586,3.990762;
36,0.46309182,-2.4108016,2.4108016;
37,3.7864566,14.137921,-3.1463003;
38,3.336985,19.231932,6.5513873;
39,5.6660647,3.7864566,0.53119355;
40,0.23154591,0.7627395,0.7627395;
41,-4.8216033,19.57244,8.158588;
42,1.8387469,-1.1168685,-2.7921712;
43,-3.2961242,10.079058,13.824653;
44,11.604536,17.079916,1.334794;
45,-3.173541,14.015338,5.706926;
46,0.61291564,1.1168685,2.5606253;
47,-7.8861814,19.57244,1.9885708;
48,3.1463003,5.243834,4.671779;
49,-3.0237172,-4.3312707,-3.336985;
50,-0.08172209,11.917805,-7.8861814;
51,-1.0351465,14.818938,4.6036777;
52,-2.4516625,2.5333846,3.486809;
53,-1.3756552,2.070293,-0.19068487;
54,-2.4925237,19.57244,6.469665;
55,1.4573772,-5.243834,-4.372132;
56,-1.4165162,9.80665,5.7477865;
57,-1.2666923,14.709975,6.2108784;
58,-3.6774938,3.173541,3.7864566;
59,1.8387469,2.7649305,-1.7570249;
60,-1.2666923,19.313654,6.3198414;
61,2.4108016,-7.6546354,-6.1291566;
62,-0.61291564,16.358038,4.944186;
63,0.040861044,17.502148,2.5333846;
64,-7.6546354,7.8180795,4.372132;
65,-1.2666923,0.7218784,0.8036005;
66,-5.012288,19.57244,5.5162406;
67,1.9477097,2.7921712,2.070293;
68,-5.053149,1.6480621,7.6273947;
69,9.384419,13.443283,1.0351465;
70,-5.434519,13.211738,6.4424243;
71,-0.61291564,1.879608,1.4165162;
72,4.7126403,-6.5513873,-6.0201936;
73,-1.7570249,9.302697,-6.428804;
74,-0.9125633,10.501288,-0.27240697;
75,2.6014864,19.381754,4.440233;
76,5.7886477,3.214402,1.1441092;
77,-1.9885708,12.4489975,-2.7240696;
78,1.4165162,16.780268,8.471856;
79,0.42223078,-8.267551,-7.3549876;
80,-3.568531,10.95076,-0.8036005;
81,-4.671779,11.727119,0.38136974;
82,-2.1383946,1.6889231,3.5276701;
83,-1.334794,2.4925237,-0.3405087;
84,-2.9147544,19.57244,7.5865335;
85,3.5276701,-3.9499009,-1.920469;
86,-4.0588636,10.038197,14.2877445;
87,7.5865335,13.33432,3.8681788;
88,-5.175732,14.1787815,5.5162406;
89,1.1849703,2.1111538,2.2201166;
90,-3.718355,19.463476,-0.8036005;
91,3.173541,6.510526,4.2086873;
92,-1.7297841,-5.6252036,-4.3312707;
93,0.84446156,12.980191,11.563675;
94,2.7649305,17.352324,7.7363577;
95,2.3426998,15.894946,3.6774938;
96,4.7943625,3.8273177,0.9942854;
97,-1.8387469,12.830367,-1.56634;
98,5.366417,14.410328,6.742072;
99,2.1111538,0.27240697,2.6423476;
100,4.2086873,11.454713,7.6273947;
101,-5.134871,9.00305,-3.173541;
102,3.0237172,7.164303,0.08172209;
103,2.070293,3.486809,1.7570249;
104,-3.1054392,4.862464,-0.040861044;
105,-4.399372,19.531578,5.053149;
106,4.7535014,-3.2961242,-2.1383946;
107,-0.6946377,-7.6273947,-7.8180795;
108,-2.8330324,6.5513873,-7.9679036;
109,-0.8036005,10.460427,0.23154591;
110,-3.214402,3.0645783,3.255263;
111,-2.8738933,3.5957718,0.10896278;
112,-4.4810944,19.504337,5.9793324;
113,2.7921712,-1.7570249,0.19068487;
114,-4.7535014,4.2086873,11.141444;
115,-1.56634,3.759216,3.255263;
116,-3.214402,2.9556155,0.7627395;
117,-2.6423476,19.57244,8.008764;
118,0.5720546,-1.4982382,-0.38136974;
119,-1.525479,-7.7363577,-8.580819;
120,-4.7535014,18.537292,-3.1054392;
121,1.7978859,14.410328,1.0760075;
122,-0.8036005,3.255263,3.990762;
123,-1.2258313,3.990762,0.8036005;
124,-4.630918,19.57244,6.3607025;
125,1.9885708,-1.3756552,-0.5720546;
126,-4.630918,1.920469,8.281172;
127,12.299174,17.883516,5.325556;
128,0.9942854,15.241169,5.325556;
129,1.0351465,1.7570249,1.9885708;
130,-9.384419,19.57244,0.10896278;
131,2.9556155,5.597963,4.630918;
132,-2.3699405,-5.366417,-2.7513103;
133,-1.879608,10.882658,-7.7772183;
134,1.1168685,18.496431,3.5957718;
135,5.012288,4.372132,1.334794;
136,-3.336985,16.589584,-4.671779;
137,-6.891896,19.57244,6.238119;
138,3.3778462,-0.6537767,2.3018389;
139,-2.1383946,15.554437,4.372132;
140,5.284695,1.6480621,-0.29964766;
141,-9.425281,18.959524,-4.903325;
142,2.070293,19.57244,8.008764;
143,1.6480621,-2.6014864,-1.4573772;
144,-1.56634,-7.7772183,-9.112013;
145,-6.932757,13.33432,-6.3198414;
146,-4.140586,12.871228,-0.84446156;
147,3.0237172,2.3699405,2.0294318;
148,-1.9885708,5.9793324,0.040861044;
149,2.9556155,19.57244,7.6273947;
150,1.7297841,-5.325556,-2.7513103;
151,-0.42223078,14.1787815,9.888372;
152,3.1463003,17.24336,5.407278;
153,-0.5720546,18.727978,4.671779;
154,5.5162406,3.7864566,1.1849703;
155,-4.3312707,15.6634,-3.445948;
156,5.5571017,14.709975,7.43671;
157,0.50395286,-7.7772183,-8.921328;
158,-4.7126403,6.891896,-11.032481;
159,-1.7297841,8.962189,-2.1111538;
160,-3.214402,3.486809,3.6774938;
161,-2.3018389,0.84446156,1.3075534;
162,-4.7943625,18.428331,-4.9850473;
163,4.0588636,14.628253,9.00305;
164,1.6889231,-0.7218784,1.3075534;
165,2.2609777,15.213928,7.5865335;
166,2.2609777,18.578154,4.630918;
167,5.597963,4.630918,-0.08172209;
168,-2.070293,1.8387469,1.0351465;
169,-5.706926,19.57244,6.4015636;
170,1.6889231,-1.9885708,0.42223078;
171,-3.1463003,0.23154591,5.597963;
172,5.7477865,15.28203,1.0351465;
173,2.4516625,19.340895,5.366417;
174,5.706926,4.2086873,1.56634;
175,-3.5276701,8.049625,-0.61291564;
176,5.284695,16.358038,9.112013;
177,0.08172209,-6.701211,-7.5456724;
178,-6.5513873,17.011814,-4.372132;
179,-0.23154591,15.5135765,0.8036005;
180,-4.5628166,4.0180025,3.0645783;
181,-0.50395286,0.6946377,-0.27240697;
182,-0.50395286,19.57244,7.6954966;
183,0.313268,-2.1792557,-2.1111538;
184,-1.9477097,6.701211,11.686258;
185,7.1234417,16.276316,2.8330324;
186,2.152015,18.727978,4.8216033;
187,-9.00305,5.407278,2.7921712;
188,5.706926,4.7126403,0.6537767;
189,-7.014479,17.270601,-6.3198414;
190,7.9270425,12.830367,7.6273947;
191,-0.0,-6.742072,-8.349273;
192,-3.2961242,2.5606253,9.575105;
193,6.5513873,16.86199,2.2201166;
194,-0.95342433,17.052675,4.4810944;
195,3.2961242,4.2904096,0.08172209;
196,-6.510526,18.115063,-5.8567495;
197,5.9793324,10.501288,7.1234417;
198,-0.5720546,-6.1291566,-9.112013;
199,-5.012288,13.021052,-5.7477865;
200,1.920469,15.785983,1.4165162;
201,2.7921712,3.1463003,1.4165162;
202,-0.95342433,8.008764,-0.42223078;
203,-10.079058,19.57244,-1.7570249;
204,4.372132,5.8567495,5.5162406;
205,-1.3075534,-4.2086873,-7.082581;
206,0.38136974,14.2877445,-3.568531;
207,3.1054392,19.082108,5.012288;
208,2.4516625,4.7943625,1.7978859;
209,-1.2258313,9.656827,-1.56634;
210,3.8273177,18.04696,6.851035;
211,0.08172209,-7.8861814,-8.19945;
212,-1.525479,17.352324,-1.8387469;
213,-1.4573772,14.056199,2.982856;
214,-6.701211,4.5628166,3.1054392;
215,-1.56634,1.2666923,0.88532263;
216,-0.95342433,19.57244,8.349273;
217,-0.9125633,-3.9499009,-2.982856;
218,-2.0294318,11.413852,15.4046135;
219,7.8589406,18.700737,6.0882955;
220,-1.1441092,16.548723,6.742072;
221,4.1814466,3.8681788,-0.14982383;
222,-3.5276701,18.087822,-3.8681788;
223,5.6252036,9.084772,6.6331096;
224,2.2201166,-5.8158884,-10.106298;
225,-9.193735,3.568531,-6.238119;
226,3.173541,15.241169,1.6480621;
227,5.284695,3.405087,1.2258313;
228,1.4573772,10.501288,-1.4165162;
229,3.5276701,19.19107,4.903325;
230,1.7297841,-10.61025,-11.536434;
231,-6.5922484,14.410328,-8.812365;
232,-8.880466,5.9793324,4.2904096;
233,-2.7240696,3.405087,2.2201166;
234,-8.689782,19.57244,8.349273;
235,4.944186,8.62168,5.7886477;
236,-1.1168685,-6.0474343,-9.888372;
237,-1.6480621,14.519291,1.7978859;
238,-2.5606253,8.771504,-1.334794;
239,-13.565866,5.5162406,4.2086873;
240,-0.88532263,2.9556155,0.61291564;
241,-4.5900574,19.57244,8.539958;
242,1.334794,-3.173541,-2.7921712;
243,0.08172209,15.854085,12.067628;
244,-2.4925237,10.61025,-0.7218784;
245,-12.762266,7.205164,4.4810944;
246,-0.5720546,2.7649305,1.0351465;
247,-6.3198414,19.57244,9.575105;
248,0.5720546,-3.3642259,-0.5720546;
249,0.50395286,15.826844,15.745122;
250,-2.9147544,6.0201936,-2.982856;
251,-11.985906,5.938472,4.140586;
252,-0.14982383,4.0588636,-0.14982383;
253,-1.7297841,19.57244,4.7943625;
254,1.9885708,-6.3607025,-6.0474343;
255,-1.56634,-1.607201,-0.040861044;
256,-4.7943625,19.15021,1.4982382;
257,2.982856,16.86199,1.920469;
258,-6.3198414,5.5571017,3.486809;
259,-0.7627395,2.3699405,0.313268;
260,-2.6832085,18.700737,7.9270425;
261,1.1441092,-5.8567495,-4.2904096;
262,-2.6014864,18.196785,4.0180025;
263,7.8861814,-2.2201166,-0.8036005;
264,4.2086873,0.7627395,1.920469;
265,-0.61291564,6.4015636,-0.61291564;
266,0.42223078,-6.8237944,-10.460427;
267,-8.049625,9.697687,-2.8738933;
268,4.9850473,19.313654,1.6480621;
269,1.7978859,4.0588636,2.9556155;
270,4.140586,0.7627395,2.1792557;
271,-0.10896278,7.7363577,-1.0351465;
272,0.92618364,-0.23154591,2.8330324;
273,-6.0474343,9.956474,15.826844;
274,0.88532263,0.61291564,-4.862464;
275,-4.3312707,7.164303,-0.10896278;
276,-8.580819,7.3549876,4.2904096;
277,0.46309182,2.6832085,1.6480621;
278,-5.012288,19.422615,8.580819;
279,-0.3405087,-5.243834,-3.445948;
280,1.1441092,16.507862,11.645397;
281,-1.1441092,4.6036777,-3.5957718;
282,-10.923519,8.308413,3.5957718;
283,0.84446156,2.6014864,1.7570249;
284,-5.325556,18.891422,7.9270425;
285,1.3075534,-0.10896278,2.7649305;
286,-4.5219555,8.580819,12.789507;
287,-6.973618,17.66559,-4.5628166;
288,-1.334794,12.789507,-0.46309182;
289,-0.38136974,12.067628,0.14982383;
290,-4.8216033,19.15021,8.812365;
291,0.5720546,-2.3426998,-0.27240697;
292,-4.440233,11.304889,15.4046135;
293,-0.38136974,3.1463003,-3.7864566;
294,-13.593107,9.112013,4.0180025;
295,1.2666923,0.8036005,2.3018389;
296,-12.912089,19.463476,3.3778462;
297,2.5606253,3.636633,3.9090397;
298,-4.099725,0.53119355,3.7864566;
299,11.073342,6.1291566,-1.9477097;
300,-3.8681788,11.413852,5.2165933;
301,7.0553403,2.3018389,0.84446156;
302,-8.730643,19.531578,0.38136974;
303,3.0645783,6.5922484,6.66035;
304,-1.607201,-4.399372,-5.09401;
305,4.2086873,-2.1383946,0.38136974;
306,-2.6014864,10.038197,5.8567495;
307,4.440233,18.959524,3.0645783;
308,2.3699405,0.53119355,2.6014864;
309,-2.7513103,-1.56634,2.070293;
310,4.9850473,-8.921328,-4.5219555;
311,1.7978859,15.704261,1.9477097;
312,-11.9450445,7.9270425,3.486809;
313,0.46309182,2.5606253,0.9942854;
314,-3.5276701,18.578154,6.742072;
315,0.8036005,-4.399372,-3.718355;
316,-4.1814466,18.46919,9.915613;
317,1.9477097,9.915613,-3.0645783;
318,-12.53072,8.853226,3.568531;
319,7.1234417,3.8681788,-0.23154591;
320,2.7921712,-9.043911,-10.923519;
321,-5.434519,17.965239,-7.273266;
322,1.334794,-3.486809,-2.070293;
323,-6.973618,6.0474343,3.445948;
324,5.325556,2.8330324,0.6946377;
325,-9.724928,19.57244,-2.4108016;
326,3.214402,4.099725,4.8216033;
327,-2.1111538,-0.5720546,1.56634;
328,9.112013,0.88532263,-1.879608;
329,-0.14982383,8.689782,3.759216;
330,5.6660647,2.7649305,0.6946377;
331,-8.158588,19.57244,-1.607201;
332,3.9499009,5.325556,3.6774938;
333,-0.10896278,-4.7126403,-5.243834;
334,10.419566,7.164303,-2.1792557;
335,-5.325556,9.234595,6.6331096;
336,7.273266,2.6014864,1.4165162;
337,-7.43671,19.57244,-1.607201;
338,3.9499009,18.537292,5.7477865;
339,3.3778462,-7.246025,-5.7886477;
340,-8.880466,19.531578,3.173541;
341,1.607201,16.358038,1.1849703;
342,1.9885708,9.112013,5.5162406;
343,5.9793324,3.718355,0.88532263;
344,1.5390993,1.7570249,1.920469;
345,-6.891896,19.57244,8.921328;
346,0.42223078,-2.4925237,0.23154591;
347,-2.3426998,14.941522,14.206022;
348,-6.0201936,9.043911,-0.7627395;
349,-10.991621,7.668256,4.5628166;
350,1.56634,0.95342433,1.879608;
351,-9.152874,19.57244,7.6273947;
352,0.38136974,0.0,2.3426998;
353,-4.671779,7.164303,11.536434;
354,9.152874,5.09401,-0.10896278;
355,-8.471856,9.043911,4.7126403;
356,2.8738933,2.0294318,1.7570249;
357,-10.106298,19.57244,2.152015;
358,4.1814466,4.2086873,5.2165933;
359,-5.284695,0.313268,1.4165162;
360,11.114203,9.724928,1.334794;
361,-1.4165162,12.258313,5.134871;
362,8.771504,4.0588636,0.23154591;
363,-1.334794,14.941522,-3.8273177;
364,8.430995,10.269742,5.134871;
365,-0.84446156,-6.0201936,-11.645397;
366,0.6537767,5.7477865,-2.8738933;
367,9.234595,15.472715,6.66035;
368,3.7864566,5.407278,1.4573772;
369,0.53119355,11.34575,-0.84446156;
370,7.7772183,15.050485,6.8237944;
371,-0.14982383,-7.7772183,-14.437569;
372,-6.2108784,16.507862,-8.117727;
373,8.662541,19.531578,5.053149;
374,0.08172209,5.243834,3.568531;
375,-0.84446156,4.862464,-0.7218784;
376,-0.3405087,-5.325556,-10.106298;
377,-3.486809,8.281172,-2.1111538;
378,9.575105,15.6634,7.6954966;
379,3.568531,4.0588636,1.1849703;
380,-0.6946377,2.8738933,3.173541;
381,-10.378705,19.57244,2.4516625;
382,2.4516625,0.19068487,4.6036777;
383,-5.6660647,6.8237944,8.771504;
384,4.8216033,0.6537767,-2.982856;
385,-5.09401,8.539958,4.8216033;
386,8.430995,2.5606253,-1.0760075;
387,-8.662541,19.531578,-0.0;
388,3.445948,3.1054392,5.325556;
389,-2.2609777,-1.56634,-4.3312707;
390,4.2086873,-5.175732,-3.636633;
391,7.273266,18.087822,5.7477865;
392,0.38136974,4.5628166,3.0645783;
393,-1.1441092,8.812365,-0.14982383;
394,6.4424243,15.363752,6.851035;
395,0.14982383,-9.084772,-12.830367;
396,-6.782933,15.050485,-5.6660647;
397,6.782933,19.531578,3.9499009;
398,-6.782933,9.425281,2.982856;
399,6.2789803,3.486809,-0.08172209;
400,-2.1383946,3.7864566,-0.46309182;
401,-2.5333846,19.57244,6.742072;
402,0.5720546,-6.742072,-4.5219555;
403,-7.6546354,19.313654,4.944186;
404,5.7477865,18.8097,3.0645783;
405,-10.038197,8.662541,1.56634;
406,0.313268,2.3699405,2.4516625;
407,-7.6273947,19.57244,10.378705;
408,-1.56634,-2.6832085,0.53119355;
409,-3.1463003,13.865514,15.595298;
410,4.903325,8.240311,-1.525479;
411,-11.073342,8.730643,2.8330324;
412,-2.070293,2.6423476,0.9942854;
413,-5.09401,19.57244,10.651112;
414,0.9942854,-2.5333846,0.040861044;
415,-0.95342433,8.580819,11.223166;
416,1.0351465,-1.1168685,-2.4108016;
417,-3.1463003,9.00305,3.405087;
418,7.205164,1.3075534,-1.4165162;
419,0.3405087,2.3699405,-0.08172209;
420,-3.718355,19.57244,7.9679036;
421,-0.38136974,-5.5571017,-3.568531;
422,-5.47538,16.208214,7.014479;
423,2.1111538,14.519291,0.10896278;
424,-8.962189,6.851035,2.7921712;
425,-1.0351465,2.070293,2.6014864;
426,-11.032481,19.57244,8.812365;
427,1.0351465,-0.46309182,2.2201166;
428,-6.0201936,9.275456,4.5219555;
429,-1.3075534,3.214402,2.7649305;
430,1.2258313,3.759216,-1.3075534;
431,0.92618364,19.531578,7.246025;
432,1.4165162,-6.891896,-8.158588;
433,-4.1814466,18.0061,4.7126403;
434,2.070293,14.669114,0.61291564;
435,-8.158588,9.80665,3.7864566;
436,0.10896278,1.1441092,3.173541;
437,3.445948,10.269742,-1.6889231;
438,5.9793324,18.659876,5.8976107;
439,0.38136974,-8.076866,-8.076866;
440,-4.372132,19.57244,-0.5720546;
441,6.3198414,19.231932,3.7864566;
442,-2.5333846,6.0882955,3.0237172;
443,0.50395286,2.6014864,-1.334794;
444,-1.6480621,19.57244,7.4639506;
445,-4.2495484,10.651112,15.132206;
446,5.5571017,2.152015,-1.2258313;
447,-10.337844,9.425281,4.372132;
448,5.829509,1.6889231,1.3756552;
449,7.43671,17.311462,5.7886477;
450,0.313268,0.61291564,3.255263;
451,-6.851035,17.311462,-6.0201936;
452,10.800936,19.531578,4.0588636;
453,-3.1054392,4.8216033,2.3426998;
454,0.08172209,0.38136974,0.7218784;
455,-6.1291566,19.57244,10.923519;
456,-1.4165162,-1.7570249,0.040861044;
457,-2.8330324,11.686258,16.167353;
458,1.9885708,-0.50395286,-3.718355;
459,-12.871228,8.008764,3.6774938;
460,1.0351465,0.9942854,3.336985;
461,-14.246883,19.57244,5.938472;
462,-0.7218784,-0.46309182,2.9556155;
463,-5.175732,7.8589406,12.53072;
464,3.568531,-4.3312707,-3.1463003;
465,-11.304889,8.076866,4.0588636;
466,2.4108016,1.7297841,0.3405087;
467,-7.164303,19.531578,-2.9556155;
468,7.6954966,10.18802,5.284695;
469,1.8387469,-7.1234417,-12.912089;
470,-3.636633,13.021052,-8.921328;
471,6.851035,18.305748,6.782933;
472,1.2666923,4.2086873,2.152015;
473,2.8738933,0.10896278,2.3426998;
474,-0.42223078,-8.308413,-13.211738;
475,-2.6014864,7.0553403,10.61025;
476,1.7297841,17.052675,5.8567495;
477,0.61291564,5.6252036,-2.4516625;
478,-7.3958488,4.944186,5.09401;
479,-1.1441092,0.61291564,2.8738933;
480,-11.182305,19.504337,9.765789;
481,-1.1168685,-0.5720546,2.6832085;
482,-8.049625,2.7240696,3.1463003;
483,8.281172,13.988097,1.7297841;
484,4.9850473,14.015338,6.891896;
485,3.636633,3.3778462,1.1168685;
486,-2.4925237,15.554437,-0.38136974;
487,4.7535014,8.19945,5.5162406;
488,1.0351465,-5.202973,-8.049625;
489,-2.2201166,12.871228,-2.4108016;
490,10.269742,19.340895,3.445948;
491,-0.7218784,6.0201936,4.399372;
492,-2.3018389,5.9793324,-1.334794;
493,-2.1111538,19.57244,5.6660647;
494,-0.27240697,-6.0882955,-3.5957718;
495,-3.5957718,13.797412,15.6634;
496,3.405087,3.1054392,-3.9499009;
497,5.8567495,19.57244,6.4015636;
498,-2.3426998,5.2165933,3.636633;
499,0.7218784,6.2789803,-0.8036005;
500,2.7921712,16.780268,6.2108784;
501,1.607201,-8.812365,-10.419566;
502,-9.534244,17.62473,-4.5900574;
503,11.75436,0.27240697,-1.3075534;
504,0.50395286,1.7570249,3.5276701;
505,-14.015338,19.57244,5.434519;
506,1.8387469,1.334794,4.8216033;
507,-4.372132,4.0588636,6.510526;
508,-7.504812,18.959524,-3.5276701;
509,2.2201166,14.982383,-3.759216;
510,7.8180795,15.322891,4.7126403;
511,-0.29964766,-0.6537767,2.9147544;
512,-4.3312707,6.5513873,7.9270425;
513,5.134871,0.19068487,-4.7943625;
514,-3.9090397,7.7772183,4.5219555;
515,8.471856,3.255263,0.313268;
516,-4.140586,18.278507,-3.718355;
517,6.782933,8.853226,5.2165933;
518,1.334794,-7.5456724,-12.598822;
519,-5.134871,13.906375,-6.0882955;
520,7.8589406,19.504337,4.7943625;
521,2.7240696,4.2495484,1.5390993;
522,-0.7218784,6.3198414,-0.50395286;
523,-11.3321295,19.504337,7.0553403;
524,0.9942854,-1.1849703,2.6423476;
525,-5.8976107,8.308413,10.841797;
526,6.891896,6.0882955,0.3405087;
527,-2.3699405,9.615966,4.7535014;
528,4.1814466,3.568531,0.6537767;
529,-5.434519,19.57244,-1.9885708;
530,6.469665,3.3778462,4.2495484;
531,-1.1441092,-4.5219555,-10.337844;
532,-5.325556,19.381754,-4.3312707;
533,6.6331096,-5.9793324,-3.1054392;
534,-0.5720546,7.9270425,3.405087;
535,6.6331096,2.8330324,-1.3075534;
536,-2.9556155,18.578154,-3.9499009;
537,7.6273947,6.6331096,5.09401;
538,0.08172209,-6.782933,-7.7772183;
539,-4.140586,14.818938,0.6537767;
540,0.27240697,15.4046135,2.8738933;
541,-11.141444,6.973618,2.8330324;
542,0.8036005,2.7649305,-0.84446156;
543,-2.4925237,19.231932,7.7772183;
544,-0.50395286,-4.9850473,-1.3756552;
545,-3.5276701,16.657684,12.026767;
546,-0.19068487,13.021052,0.08172209;
547,-11.876944,7.5456724,3.214402;
548,-0.7218784,2.7921712,1.607201;
549,-3.1463003,19.272793,9.152874;
550,-1.0760075,-5.012288,-3.445948;
551,-5.5162406,17.965239,7.0553403;
552,2.7649305,17.856276,0.9942854;
553,-9.724928,7.246025,2.8330324;
554,0.38136974,1.1441092,1.1441092;
555,-5.6660647,19.422615,9.575105;
556,0.08172209,-5.325556,-2.8738933;
557,-4.2086873,15.976667,8.62168;
558,10.079058,5.706926,3.3778462;
559,0.7627395,12.639683,6.4424243;
560,-3.6774938,6.0201936,4.440233;
561,-2.6423476,0.88532263,-0.7218784;
562,-6.0882955,18.8097,7.7363577;
563,-0.53119355,-6.428804,-5.434519;
564,-2.982856,15.023244,1.6480621;
565,0.8036005,14.669114,-0.23154591;
566,-10.460427,8.771504,2.3426998;
567,-1.0351465,2.4925237,2.9556155;
568,-12.789507,19.313654,10.691973;
569,1.1441092,-3.214402,1.7297841;
570,-6.6331096,11.182305,15.023244;
571,2.5606253,8.117727,0.08172209;
572,-9.724928,8.812365,4.7535014;
573,1.3756552,2.5333846,3.5276701;
574,-13.0619135,19.531578,6.0882955;
575,2.7921712,-0.95342433,3.5276701;
576,2.7649305,3.3778462,2.4925237;
577,-1.7570249,2.2609777,-0.42223078;
578,-9.724928,19.381754,9.152874;
579,-0.0,-3.214402,1.334794;
580,-2.7513103,9.615966,12.4489975;
581,-11.795221,12.721405,-6.428804;
582,2.0294318,17.474907,0.95342433;
583,-10.460427,5.2165933,3.214402;
584,0.23154591,1.3075534,1.4573772;
585,-8.62168,19.57244,11.563675;
586,-0.53119355,0.46309182,1.5390993;
587,-4.0588636,12.299174,15.595298;
588,-0.53119355,3.214402,-3.173541;
589,-9.112013,8.539958,3.759216;
590,6.973618,2.070293,0.27240697;
591,1.3075534,3.173541,-0.61291564;
592,-1.1168685,2.6423476,8.076866;
593,-0.9942854,3.0237172,8.308413;
594,-1.0760075,3.445948,8.049625;
595,-1.0760075,5.2165933,6.891896;
5560,-0.7627395,9.00305,2.6832085;
5561,-0.19068487,9.193735,3.5957718;
5562,0.7218784,8.853226,4.440233;
5563,1.4982382,8.076866,4.399372;
5564,0.27240697,6.742072,5.053149;
5565,0.23154591,6.0201936,4.671779;
5566,-1.56634,12.408136,1.5390993;
5567,-0.42223078,9.234595,3.255263;
5568,5.7886477,16.276316,4.630918;
5569,2.1792557,15.241169,5.434519;
5570,-0.27240697,2.6832085,1.4573772;
5571,-2.070293,17.352324,-0.42223078;
5572,2.1111538,19.57244,8.158588;
5573,0.5720546,-2.7921712,-2.4108016;
5574,0.08172209,9.425281,5.9793324;
5575,3.9090397,15.6634,0.9942854;
5576,0.84446156,17.502148,7.504812;
5577,1.1441092,3.9499009,3.5276701;
5578,1.7570249,0.7627395,0.92618364;
5579,-3.5276701,18.918663,-1.4165162;
5580,3.0645783,11.372991,6.0201936;
5581,-1.7297841,-7.082581,-9.152874;
5582,-2.6014864,4.944186,4.7943625;
5583,-3.8681788,9.765789,-5.243834;
5584,4.372132,17.393185,2.7649305;
5585,-2.1383946,7.082581,3.759216;
5586,0.8036005,2.3018389,1.3756552;
5587,-3.8681788,19.57244,5.6660647;
5588,0.7218784,3.2961242,3.0645783;
5589,-1.4982382,-9.534244,-11.454713;
5590,-1.9885708,3.718355,4.1814466;
5591,-0.61291564,8.771504,-6.2789803;
5592,9.084772,19.313654,7.014479;
5593,5.366417,3.759216,2.8330324;
5594,-1.9885708,16.630445,-3.7864566;
5595,-2.4925237,19.57244,6.510526;
5596,1.56634,-2.3018389,-1.3756552;
5597,-4.7943625,-3.8273177,-7.3549876;
5598,-5.366417,13.443283,-7.4639506;
5599,11.563675,19.313654,6.5922484;
5600,0.040861044,4.630918,4.4810944;
5601,3.5276701,2.6014864,1.1168685;
5602,-2.7513103,16.589584,-3.3642259;
5603,6.0474343,15.050485,4.140586;
5604,-2.8738933,-8.921328,-11.114203;
5605,1.7297841,13.525005,10.95076;
5606,-10.882658,11.958665,-6.782933;
5607,5.8976107,19.531578,4.862464;
5608,-1.1441092,5.243834,4.7535014;
5609,3.1463003,2.6014864,1.9885708;
5610,-3.255263,18.578154,-3.5276701;
5611,5.8567495,8.240311,4.1814466;
5612,-3.405087,-3.759216,-6.469665;
5613,-7.9679036,11.686258,-4.0180025;
5614,12.067628,17.856276,6.932757;
5615,-6.2108784,10.841797,2.7240696;
5616,6.3607025,1.7570249,1.879608;
5617,2.4925237,3.8273177,1.7978859;
5618,-2.8330324,1.6480621,1.0760075;
5619,0.6946377,18.768839,1.7978859;
5620,-3.173541,-1.8387469,-6.2789803;
5621,-4.9850473,-6.782933,-10.106298;
5622,2.4108016,11.836082,13.443283;
5623,-8.158588,6.701211,-8.812365;
5624,5.366417,1.3756552,1.9885708;
5625,-1.56634,5.5162406,-1.6480621;
5626,-6.66035,19.57244,-2.1383946;
5627,5.407278,18.727978,6.1700177;
5628,1.3075534,9.302697,-3.255263;
5629,2.9147544,18.34661,0.14982383;
5630,-5.053149,14.056199,4.2086873;
5631,3.5957718,19.381754,5.325556;
5632,2.2201166,-8.076866,-8.730643;
5633,5.09401,16.317177,9.234595;
5634,5.053149,13.756551,-1.525479;
5635,6.3607025,15.826844,6.2108784;
5636,-8.580819,13.375181,3.636633;
5637,2.6832085,3.0237172,4.3312707;
5638,6.782933,13.565866,3.3778462;
5639,3.445948,18.04696,0.53119355;
5640,-2.1111538,7.5865335,5.366417;
5641,1.1168685,9.534244,-3.0237172;
5642,7.43671,19.531578,2.7649305;
5643,-4.2904096,12.571581,6.701211;
5644,4.5219555,4.671779,5.175732;
5645,5.434519,8.117727,3.1054392;
5646,-2.3018389,-8.308413,-8.853226;
5647,4.0180025,8.430995,0.5720546;
5648,8.771504,17.774553,-2.3699405;
5649,3.9499009,17.815414,7.8180795;
5650,-0.19068487,3.405087,4.7126403;
5651,0.95342433,14.2877445,-4.0180025;
5652,9.084772,15.745122,5.6252036;
5653,-0.08172209,-0.5720546,0.88532263;
5654,-0.6946377,12.408136,10.841797;
5655,12.14935,8.008764,-4.9850473;
5656,2.9556155,15.431854,7.8589406;
5657,-2.982856,6.2108784,4.5628166;
5658,6.782933,2.9147544,1.7978859;
5659,-0.9942854,18.155924,-3.1463003;
5660,8.117727,5.6252036,3.1054392;
5661,-7.246025,-0.10896278,-2.3699405;
5662,7.5456724,14.669114,8.19945;
5663,1.920469,9.888372,-5.366417;
5664,9.507003,15.132206,8.117727;
5665,10.528529,2.070293,1.4165162;
5666,2.1792557,15.363752,-5.366417;
5667,-7.43671,19.57244,6.4424243;
5668,13.947236,18.305748,5.6252036;
5669,-8.539958,8.812365,4.862464;
5670,9.888372,1.607201,0.46309182;
5671,0.7627395,6.3198414,-6.4015636;
5672,13.525005,18.38747,5.7886477;
5673,4.3312707,1.7570249,3.2961242;
5674,3.486809,19.57244,5.829509;
5675,-2.7513103,-5.284695,-4.8216033;
5676,7.164303,15.636159,11.876944;
5677,-0.6537767,5.8567495,-7.082581;
5678,-4.630918,11.114203,6.1700177;
5679,2.6423476,5.012288,3.8681788;
5680,1.4165162,3.568531,0.53119355;
5681,1.4982382,19.57244,7.668256;
5682,7.3549876,13.021052,2.9147544;
5683,4.7126403,17.270601,-0.53119355;
5684,6.510526,14.328606,8.471856;
5685,10.337844,2.4516625,1.2258313;
5686,1.4165162,15.554437,-0.7218784;
5687,10.651112,18.619015,6.0201936;
5688,8.812365,1.607201,2.7649305;
5689,5.325556,19.463476,4.440233;
5690,1.4982382,3.3778462,4.140586;
5691,-3.9771416,3.405087,3.336985;
5692,10.038197,16.467001,8.281172;
5693,-6.1700177,9.275456,3.5957718;
5694,0.95342433,2.6014864,4.2904096;
5695,-4.862464,-9.084772,-10.501288;
5696,2.982856,15.4046135,2.6014864;
5697,0.5720546,-2.4108016,-7.1234417;
5698,-0.61291564,11.264028,6.701211;
5699,10.228881,2.152015,1.7297841;
5700,1.8387469,2.9147544,3.0645783;
5701,9.615966,16.126492,4.372132;
5702,-4.7126403,14.1787815,-0.29964766;
5703,8.349273,19.231932,4.7535014;
5704,-5.09401,7.164303,2.8738933;
5705,8.158588,2.1111538,1.9885708;
5706,-0.38136974,1.7978859,1.7570249;
5707,1.4573772,14.628253,-2.5333846;
5708,4.0588636,18.087822,7.5865335;
5709,10.56939,1.9477097,2.3018389;
5710,1.9477097,2.1111538,3.1463003;
5711,-4.5219555,-11.495573,-12.639683;
5712,1.4165162,16.249075,-0.61291564;
5713,1.0760075,4.7943625,4.372132;
5714,5.2165933,1.920469,1.920469;
5715,2.2609777,9.00305,-4.671779;
5716,-6.238119,10.56939,4.7126403;
5717,3.8273177,0.50395286,2.152015;
5718,1.607201,4.2904096,1.6889231;
5719,6.1291566,8.812365,3.8273177;
5720,-4.0588636,-1.9477097,-3.759216;
5721,0.84446156,14.015338,7.9679036;
5722,-0.9125633,6.0201936,5.366417;
5723,8.240311,16.43976,5.7886477;
5724,9.302697,19.504337,3.718355;
5725,3.6774938,4.2495484,4.7535014;
5726,2.8738933,2.0294318,3.568531;
5727,6.5922484,5.706926,4.2904096;
5728,-6.782933,-4.5628166,-6.701211;
5729,-12.680544,8.390134,-6.0882955;
5730,3.8681788,11.645397,-1.7297841;
5731,13.102775,18.619015,6.1291566;
5732,-9.615966,9.888372,3.445948;
5733,1.2666923,8.580819,-1.2666923;
5734,10.378705,16.017529,4.4810944;
5735,-0.53119355,-0.3405087,1.1168685;
5736,7.014479,18.578154,1.9885708;
5737,1.879608,13.33432,8.008764;
5738,9.915613,0.50395286,1.1168685;
5739,5.434519,4.2086873,-5.407278;
5740,7.8180795,19.504337,2.0294318;
5741,0.7218784,19.57244,6.0882955;
5742,-4.2495484,-6.5513873,-5.597963;
5743,-5.47538,9.275456,3.0237172;
5744,9.915613,2.1111538,2.6423476;
5745,4.862464,13.443283,12.258313;
5746,-7.04172,11.604536,5.134871;
5747,3.718355,3.9090397,4.9850473;
5748,2.9556155,5.938472,-0.19068487;
5749,6.3198414,12.258313,3.5957718;
5750,-6.3607025,-4.1814466,-7.082581;
5751,-9.997335,12.14935,-2.2201166;
5752,11.032481,16.467001,5.6660647;
5753,4.2495484,4.2904096,5.407278;
5754,4.944186,2.2609777,2.4516625;
5755,-6.510526,19.57244,-2.982856;
5756,7.6273947,8.62168,2.982856;
5757,-6.66035,-2.5333846,-5.09401;
5758,5.9793324,14.206022,5.8567495;
5759,3.9090397,12.871228,-2.9556155;
5760,11.454713,18.38747,5.9793324;
5761,8.539958,3.718355,4.2086873;
5762,1.4165162,9.084772,-0.14982383;
5763,-7.273266,19.57244,6.2789803;
5764,-2.7513103,-2.4925237,-1.3075534;
5765,-6.8237944,-5.7477865,-9.765789;
5766,5.6252036,16.08563,11.604536;
5767,-11.073342,9.915613,-4.5219555;
5768,-1.607201,11.34575,2.2201166;
5769,6.510526,4.5628166,4.399372;
5770,-0.8036005,19.272793,-3.3642259;
5771,-3.214402,19.57244,4.671779;
5772,-2.9147544,-6.2789803,-3.8273177;
5773,3.8681788,16.017529,9.915613;
5774,10.841797,8.390134,-5.9793324;
5775,6.8237944,19.381754,0.23154591;
5776,3.1463003,3.5957718,7.6954966;
5777,-0.08172209,5.706926,0.50395286;
5778,5.7477865,19.504337,5.325556;
5779,-5.5162406,-9.00305,-10.61025;
5780,7.9270425,12.680544,3.3778462;
5781,2.4925237,15.595298,-2.070293;
5782,-0.6537767,13.525005,7.3958488;
5783,11.182305,2.1792557,2.070293;
5784,4.6036777,7.6273947,-5.8158884;
5785,9.152874,16.358038,10.119919;
5786,-5.5162406,-1.9477097,-5.09401;
5787,7.43671,10.269742,1.7978859;
5788,-8.662541,10.119919,0.23154591;
5789,4.903325,1.607201,2.3426998;
5790,-3.5276701,18.959524,-2.1111538;
5791,7.43671,11.454713,2.9556155;
5792,3.718355,11.304889,-3.759216;
5793,11.876944,19.231932,4.7126403;
5794,4.7126403,0.53119355,3.486809;
5795,2.4925237,9.343558,-1.4573772;
5796,1.3756552,16.017529,-2.7240696;
5797,11.141444,17.583868,6.3198414;
5798,-11.304889,19.57244,3.9499009;
5799,12.026767,19.082108,5.09401;
5800,0.10896278,14.818938,-3.9771416;
5801,14.818938,17.62473,5.938472;
5802,8.049625,3.9499009,5.243834;
5803,4.6036777,1.4982382,2.3699405;
5804,-3.6774938,11.372991,-1.4165162;
5805,5.325556,3.9499009,-4.903325;
5806,6.4015636,19.109348,0.6537767;
5807,5.5571017,14.056199,7.246025;
5808,-8.921328,19.57244,0.61291564;
5809,5.938472,19.504337,4.630918;
5810,0.46309182,4.5219555,3.486809;
5811,13.0619135,19.422615,2.8330324;
5812,1.9477097,4.903325,3.9499009;
5813,6.8237944,1.1441092,3.0237172;
5814,-3.214402,1.7978859,2.152015;
5815,3.2961242,14.669114,-0.3405087;
5816,9.697687,17.474907,5.7886477;
5817,-7.3549876,10.651112,4.1814466;
5818,5.829509,2.7649305,2.3426998;
5819,7.6954966,18.891422,4.2495484;
5820,1.0760075,-9.575105,-10.310603;
5821,2.982856,7.9679036,-0.040861044;
5822,2.070293,17.924377,-1.1441092;
5823,10.528529,17.474907,6.782933;
5824,-8.812365,11.876944,5.366417;
5825,1.5390993,13.184497,-1.7570249;
5826,-8.853226,19.57244,2.7921712;
5827,0.27240697,5.706926,3.5957718;
5828,1.1849703,7.205164,-3.718355;
5829,-1.525479,13.443283,5.6660647;
5830,1.9885708,5.175732,4.3312707;
5831,-0.6537767,8.853226,-2.6832085;
5832,-5.597963,11.34575,4.630918;
5833,8.008764,3.0645783,3.9090397;
5834,3.486809,1.8387469,4.099725;
5835,2.1792557,6.851035,4.2904096;
5836,15.173067,17.856276,2.7649305;
5837,-1.525479,10.95076,6.0201936;
5838,-1.56634,9.724928,4.862464;
5839,-2.2201166,-5.407278,-4.2904096;
5840,-7.4639506,-0.23154591,-2.3426998;
5841,-6.0474343,12.598822,-2.9556155;
5842,4.671779,13.184497,-1.879608;
5843,-6.701211,11.917805,4.9850473;
5844,2.6832085,19.57244,4.0180025;
5845,-1.9885708,15.241169,-2.2609777;
5846,1.2666923,1.0351465,-6.0474343;
5847,-6.238119,11.563675,3.718355;
5848,9.384419,1.9477097,1.3756552;
5849,9.193735,19.531578,2.8738933;
5850,3.1463003,6.66035,5.407278;
5851,4.0180025,3.486809,4.7126403;
5852,0.14982383,5.5571017,-0.0;
5853,-3.214402,-4.9850473,-4.140586;
5854,5.2165933,15.322891,7.205164;
5855,2.4516625,7.273266,-4.3312707;
5856,7.9679036,15.935807,4.903325;
5857,-6.66035,12.340035,3.718355;
5858,4.7943625,2.3426998,3.568531;
5859,-11.073342,19.57244,0.27240697;
5860,-5.325556,8.962189,-3.718355;
5861,12.789507,16.208214,5.09401;
5862,-6.1291566,14.560152,5.134871;
5863,6.4015636,3.718355,4.862464;
5864,0.61291564,19.381754,6.1291566;
5865,-3.568531,-2.7513103,-1.4165162;
5866,-1.1849703,14.015338,11.958665;
5867,7.8861814,7.3958488,-4.099725;
5868,-0.8036005,12.14935,7.668256;
5869,-0.84446156,6.5922484,4.630918;
5870,3.7864566,2.9556155,2.9147544;
5871,1.6480621,17.011814,-4.3312707;
5872,-2.8330324,19.57244,6.701211;
5873,-3.5276701,-3.568531,-1.1168685;
5874,1.0760075,15.431854,12.912089;
5875,8.771504,8.240311,-2.4108016;
5876,3.6774938,17.965239,1.7978859;
5877,-2.070293,9.724928,3.5957718;
5878,9.534244,2.2201166,1.2666923;
5879,2.1792557,13.0619135,-3.5276701;
5880,-1.920469,10.337844,-2.5333846;
5881,7.668256,15.363752,7.246025;
5882,-3.9499009,11.223166,4.7943625;
5883,10.991621,1.7570249,2.4108016;
5884,9.384419,17.24336,6.510526;
5885,3.636633,10.651112,2.4925237;
5886,3.3778462,9.00305,-4.0588636;
5887,-0.7627395,12.108489,-0.8036005;
5888,1.4982382,3.1054392,0.46309182;
5889,-6.5513873,19.57244,5.47538;
5890,12.176591,19.000385,4.372132;
5891,5.053149,9.888372,1.6889231;
5892,-1.2258313,13.715691,-2.4925237;
5893,15.322891,17.352324,4.862464;
5894,9.80665,18.196785,4.140586;
5895,-0.50395286,2.7240696,4.3312707;
5896,-3.9090397,15.6634,-3.568531;
5897,11.686258,18.196785,5.09401;
5898,1.3075534,13.184497,-1.56634;
5899,14.601013,17.352324,5.407278;
5900,7.8180795,3.759216,4.671779;
5901,3.718355,2.3018389,3.9090397;
5902,4.2495484,19.531578,4.7126403;
5903,-1.3756552,-7.164303,-5.012288;
5904,-6.973618,0.8036005,-2.5333846;
5905,3.7864566,9.80665,-0.95342433;
5906,2.1792557,12.721405,-1.6480621;
5907,12.9529505,17.856276,6.2789803;
5908,5.5571017,-0.08172209,3.1463003;
5909,-7.3958488,19.57244,-1.4573772;
5910,5.134871,19.272793,5.325556;
5911,-0.5720546,-3.336985,-0.0;
5912,5.938472,19.231932,3.1463003;
5913,-7.1234417,10.18802,5.829509;
5914,-10.651112,5.284695,-7.504812;
5915,3.173541,18.891422,1.4982382;
5916,-0.6537767,14.246883,6.3198414;
5917,12.980191,15.5135765,3.8681788;
5918,-3.255263,-6.6331096,-2.6014864;
5919,10.310603,17.24336,6.4015636;
5920,10.991621,3.8681788,2.8738933;
5921,1.879608,2.5606253,5.2165933;
5922,8.853226,12.026767,-2.6014864;
5923,7.3141265,19.041246,4.399372;
5924,7.5456724,4.1814466,3.9090397;
5925,0.53119355,8.499097,0.27240697;
5926,11.563675,14.206022,3.636633;
5927,-7.9679036,-7.3549876,-12.367276;
5928,-8.240311,12.258313,-3.0645783;
5929,12.408136,19.463476,2.982856;
5930,-6.2108784,11.114203,4.671779;
5931,10.228881,1.4573772,1.5390993;
5932,-0.61291564,18.0061,-5.6252036;
5933,-1.3075534,19.57244,5.012288;
5934,-3.3642259,-4.7535014,-2.7921712;
5935,-4.0588636,14.1787815,-0.19068487;
5936,3.255263,6.782933,-2.8738933;
5937,-3.718355,14.09706,-4.2904096;
5938,6.2108784,3.5957718,-2.1383946;
5939,7.3141265,19.109348,-0.61291564;
5940,2.0294318,14.859799,-3.173541;
5941,-11.645397,19.57244,5.284695;
5942,-5.134871,-7.8861814,-6.428804;
5943,8.894087,11.495573,-5.8976107;
5944,-7.43671,12.639683,6.469665;
5945,8.240311,1.6480621,0.61291564;
5946,3.1054392,2.4516625,2.5606253;
5947,-6.238119,-3.5276701,-5.325556;
5948,5.012288,8.158588,-4.372132;
5949,11.182305,18.537292,4.2904096;
5950,6.851035,1.2666923,1.6480621;
5951,12.4489975,11.836082,3.990762;
5952,-5.8976107,11.645397,-3.405087;
5953,-4.903325,13.143636,3.990762;
5954,3.990762,6.469665,6.238119;
5955,-7.9270425,13.633968,-9.302697;
5956,13.593107,17.856276,3.0645783;
5957,4.140586,4.5628166,6.782933;
5958,8.962189,-0.10896278,2.7649305;
5959,6.5513873,8.62168,4.3312707;
5960,12.217452,18.8097,4.372132;
5961,3.0237172,5.284695,5.829509;
5962,1.0760075,2.3018389,-0.3405087;
5963,-7.3958488,19.531578,-2.3426998;
5964,9.384419,10.61025,-3.3642259;
5965,7.504812,19.531578,1.9885708;
5966,12.367276,16.739407,5.597963;
5967,13.633968,19.231932,3.5276701;
5968,-10.147159,11.032481,4.2086873;
5969,2.3426998,6.5922484,4.8216033;
5970,-5.7886477,-7.43671,-11.032481;
5971,1.1849703,13.443283,13.0619135;
5972,2.4516625,10.56939,-1.2258313;
5973,-9.493382,12.598822,-6.742072;
5974,11.686258,18.619015,3.173541;
5975,-6.469665,12.489859,5.6660647;
5976,2.1792557,19.463476,3.990762;
5977,7.4639506,19.19107,0.3405087;
5978,11.727119,16.3989,4.2495484;
5979,-5.434519,-10.501288,-11.372991;
5980,7.8861814,17.120777,10.460427;
5981,-13.375181,0.95342433,-10.18802;
5982,9.466142,0.8036005,1.2666923;
5983,-6.0882955,12.026767,-4.2086873;
5984,3.486809,9.765789,-3.5957718;
5985,10.651112,19.463476,2.4925237;
5986,9.697687,14.519291,5.2165933;
5987,-2.8330324,11.141444,-1.9885708;
5988,8.771504,3.8273177,-4.2086873;
5989,8.853226,14.982383,5.284695;
5990,0.9942854,14.015338,-3.405087;
5991,-10.691973,19.57244,5.6660647;
5992,-4.2495484,-5.325556,-3.568531;
5993,10.991621,19.57244,2.1792557;
5994,-2.7513103,12.639683,4.7943625;
5995,-5.09401,-1.0351465,-1.2666923;
5996,-6.469665,12.830367,0.95342433;
5997,10.882658,17.2025,5.325556;
5998,-9.384419,12.067628,3.445948;
5999,3.5276701,3.8273177,5.012288;
6000,7.8861814,17.352324,3.2961242;
6001,3.7864566,2.2609777,2.7649305;
6002,-0.84446156,6.973618,10.147159;
6003,1.2258313,0.6537767,-6.1291566;
6004,-2.2201166,12.217452,5.175732;
6005,-5.47538,9.888372,1.6889231;
6006,1.8387469,1.3756552,3.486809;
6007,-5.5162406,19.57244,2.4925237;
6008,6.4424243,17.692831,4.7943625;
6009,-0.27240697,1.4165162,3.3778462;
6010,7.1234417,19.231932,0.313268;
6011,2.8738933,12.489859,5.243834;
6012,-6.66035,10.419566,3.8273177;
6013,-3.568531,-7.7363577,-6.0201936;
6014,4.5219555,19.463476,1.7297841;
6015,0.61291564,13.33432,6.510526;
6016,10.882658,2.9556155,1.7297841;
6017,-3.9090397,-3.214402,-0.27240697;
6018,3.718355,15.28203,8.662541;
6019,7.9679036,2.3699405,1.879608;
6020,2.1111538,12.871228,-3.445948;
6021,-9.888372,19.57244,5.6660647;
6022,-4.2495484,6.3607025,-7.9270425;
6023,15.595298,18.34661,4.0588636;
6024,2.9556155,6.1700177,5.243834;
6025,7.3549876,-0.9942854,2.6423476;
6026,8.158588,13.184497,6.0474343;
6027,-3.9771416,-5.8567495,-6.0474343;
6028,7.9270425,0.50395286,2.4516625;
6029,2.5333846,3.405087,1.1849703;
6030,-1.607201,19.57244,5.8567495;
6031,-0.29964766,12.408136,6.0882955;
6032,-3.255263,10.419566,3.5957718;
6033,-1.7570249,12.721405,11.795221;
6034,-4.3312707,13.375181,3.445948;
6035,9.343558,1.4165162,2.070293;
6036,-3.7864566,19.531578,-3.445948;
6037,-1.1168685,19.57244,5.243834;
6038,14.601013,17.62473,4.671779;
6039,5.47538,4.7943625,5.8976107;
6040,5.706926,1.920469,3.0645783;
6041,2.4925237,11.073342,-0.040861044;
6042,7.7772183,14.669114,6.6331096;
6043,7.504812,3.7864566,3.8681788;
6044,4.440233,1.6889231,3.759216;
6045,-1.7297841,-6.0201936,-3.255263;
6046,1.2258313,16.698545,12.408136;
6047,-6.2789803,10.61025,-3.255263;
6048,11.536434,18.0061,3.568531;
6049,-2.982856,8.921328,5.2165933;
6050,9.847511,1.2258313,1.3075534;
6051,-0.53119355,19.57244,4.8216033;
6052,-2.4925237,-7.205164,-5.8158884;
6053,5.09401,6.510526,-3.486809;
6054,11.645397,18.237646,3.1054392;
6055,3.486809,2.7649305,3.759216;
6056,5.053149,19.57244,3.486809;
6057,-0.0,-8.471856,-7.3141265;
6058,3.5276701,17.079916,9.343558;
6059,5.175732,10.61025,-3.9090397;
6060,10.760075,15.595298,5.366417;
6061,-3.8273177,11.958665,2.9556155;
6062,8.008764,3.445948,3.7864566;
6063,3.173541,12.762266,-2.4516625;
6064,0.7218784,6.932757,-4.0180025;
6065,3.1463003,11.114203,-1.9885708;
6066,3.445948,14.818938,-1.607201;
6067,3.990762,14.601013,-3.636633;
6068,10.419566,18.918663,3.1054392;
6069,-1.4573772,-10.651112,-10.56939;
6070,-6.851035,6.8237944,7.0553403;
6071,-2.070293,4.944186,-5.597963;
6072,5.09401,13.33432,-2.2609777;
6073,8.117727,4.2495484,4.9850473;
6074,7.3141265,-0.040861044,3.568531;
6075,-12.912089,19.57244,-2.1792557;
6076,6.3607025,11.413852,5.5571017;
6077,-0.9125633,10.337844,-2.3699405;
6078,10.147159,1.879608,2.6832085;
6079,4.6036777,1.920469,4.671779;
6080,10.760075,15.745122,4.6036777;
6081,-8.430995,10.991621,-8.267551;
6082,4.862464,3.990762,-2.7921712;
6083,4.399372,19.531578,0.88532263;
6084,9.112013,5.012288,3.718355;
6085,10.079058,18.918663,5.012288;
6086,-4.944186,-8.390134,-8.62168;
6087,4.9850473,16.358038,-1.4982382;
6088,-6.0201936,13.484144,3.5957718;
6089,5.7886477,4.9850473,6.2789803;
6090,6.1700177,0.8036005,4.0180025;
6091,3.2961242,15.6634,-1.8387469;
6092,-4.671779,13.143636,5.053149;
6093,7.082581,1.7297841,1.4573772;
6094,2.152015,3.8273177,1.1849703;
6095,-3.568531,-7.4639506,-4.903325;
6096,-5.012288,-4.7535014,-7.3958488;
6097,3.6774938,19.422615,2.6014864;
6098,0.27240697,7.205164,5.9793324;
6099,9.343558,2.0294318,1.0760075;
6100,-3.8273177,-6.6331096,-6.4015636;
6101,-1.1441092,-0.08172209,-7.273266;
6102,0.42223078,11.413852,5.325556;
6103,8.894087,2.6014864,1.4982382;
6104,5.706926,0.3405087,2.3018389;
6105,9.275456,15.826844,3.9499009;
6106,0.3405087,6.1700177,6.782933;
6107,0.5720546,5.829509,6.469665;
6108,1.1849703,5.243834,6.5513873;
6109,0.46309182,5.09401,7.273266;
6110,0.040861044,5.366417,7.0553403;
6111,0.08172209,5.366417,6.851035;
6112,0.08172209,5.09401,6.932757;
6113,-0.5720546,5.7477865,7.082581;
6114,-0.27240697,5.2165933,7.5865335;
6115,0.10896278,5.012288,7.246025;
6116,0.42223078,5.053149,6.782933;
6696,0.7627395,10.501288,1.8387469;
6697,0.9942854,8.662541,1.7297841;
6698,0.23154591,9.615966,1.7978859;
6699,1.1168685,9.302697,1.8387469;
6700,0.7218784,9.302697,2.0294318;
6701,0.53119355,10.378705,3.255263;
6702,1.4573772,8.962189,2.5606253;
6703,1.607201,8.689782,3.636633;
6704,1.0351465,8.308413,3.336985;
6705,0.38136974,8.390134,3.1463003;
6706,1.0351465,7.668256,4.2904096;
6707,1.2666923,8.580819,5.053149;
6708,2.070293,6.932757,5.2165933;
6709,-0.84446156,3.9499009,2.3018389;
6710,-0.7627395,11.182305,1.7297841;
6711,7.504812,14.328606,4.5219555;
6712,1.2258313,13.0619135,3.2961242;
6713,-0.88532263,2.9147544,0.42223078;
6714,0.040861044,19.381754,1.4982382;
6715,1.3756552,4.399372,2.1111538;
6716,-3.1463003,0.08172209,-2.1383946;
6717,1.3075534,8.894087,-1.1168685;
6718,4.5628166,15.173067,3.636633;
6719,-2.8738933,10.079058,4.3312707;
6720,0.7627395,0.92618364,1.4165162;
6721,-0.23154591,19.57244,5.47538;
6722,-1.7978859,1.0351465,-0.9942854;
6723,-0.88532263,9.534244,8.962189;
6724,11.372991,18.34661,3.0645783;
6725,-1.0351465,12.299174,4.903325;
6726,0.53119355,1.9477097,1.4573772;
6727,-4.630918,19.57244,-0.0;
6728,3.9090397,3.486809,3.0237172;
6729,-5.6660647,-0.7218784,-3.336985;
6730,-3.9499009,12.367276,-8.076866;
6731,6.510526,19.531578,7.3958488;
6732,5.47538,3.9499009,0.53119355;
6733,1.4982382,13.906375,-3.1054392;
6734,9.343558,9.507003,3.990762;
6735,-7.04172,-5.134871,-9.615966;
6736,-10.106298,10.419566,-11.495573;
6737,3.990762,18.659876,5.407278;
6738,5.8567495,5.7477865,1.7978859;
6739,1.4165162,10.56939,-2.8330324;
6740,12.340035,12.830367,4.0588636;
6741,-9.888372,-6.5922484,-11.686258;
6742,-6.5922484,15.28203,-10.378705;
6743,6.0474343,19.000385,3.759216;
6744,5.6660647,3.759216,2.9556155;
6745,2.982856,1.4573772,3.5957718;
6746,-4.140586,19.57244,1.879608;
6747,-0.10896278,2.4108016,0.27240697;
6748,-1.9477097,4.440233,3.0645783;
6749,1.1441092,14.328606,-7.6273947;
6750,6.8237944,18.891422,5.706926;
6751,3.445948,5.09401,2.7649305;
6752,0.7627395,19.531578,-4.5628166;
6753,2.9147544,0.040861044,0.84446156;
6754,1.9885708,12.408136,-6.8237944;
6755,4.9850473,19.082108,7.1234417;
6756,0.14982383,2.9556155,0.14982383;
6757,-2.1383946,19.57244,7.3549876;
6758,-5.9793324,-3.8273177,-5.134871;
6759,5.2165933,12.367276,11.604536;
6760,12.53072,15.6634,1.1849703;
6761,0.23154591,13.797412,5.47538;
6762,8.812365,2.1792557,2.6832085;
6763,1.2258313,9.043911,-0.19068487;
6764,-1.525479,19.57244,2.8330324;
6765,0.50395286,6.973618,7.43671;
6766,-3.718355,11.727119,-6.0201936;
6767,1.8387469,16.657684,-0.9942854;
6768,1.5390993,3.173541,5.134871;
6769,-1.4573772,4.0180025,1.5390993;
6770,0.7627395,19.381754,-4.140586;
6771,7.9679036,9.997335,3.5957718;
6772,-4.0180025,-4.2495484,-6.973618;
6773,-6.0474343,15.050485,-9.697687;
6774,3.336985,18.537292,4.2086873;
6775,8.662541,1.7570249,2.9147544;
6776,0.92618364,5.7886477,0.53119355;
6777,-0.53119355,19.531578,-1.1849703;
6778,-3.1463003,12.721405,-5.325556;
6779,10.841797,14.015338,-3.486809;
6780,1.879608,17.2025,1.0760075;
6781,-1.3756552,5.7886477,5.2165933;
6782,-0.14982383,-0.42223078,-1.879608;
6783,2.5333846,9.302697,11.372991;
6784,12.108489,18.891422,3.636633;
6785,2.9147544,15.554437,5.366417;
6786,8.076866,1.1441092,3.173541;
6787,1.879608,8.662541,0.46309182;
6788,-4.372132,19.57244,-2.2609777;
6789,10.991621,19.15021,3.1463003;
6790,1.607201,7.5456724,8.662541;
6791,9.956474,16.08563,4.2086873;
6792,-1.1849703,11.795221,5.053149;
6793,1.607201,11.563675,-2.2609777;
6794,-2.4516625,19.57244,-0.9125633;
6795,-7.04172,-11.223166,-13.1708765;
6796,-4.2086873,12.258313,-6.0882955;
6797,6.782933,18.537292,-0.5720546;
6798,-2.0294318,16.358038,4.7943625;
6799,8.689782,1.4573772,0.53119355;
6800,-3.255263,19.272793,-6.2108784;
6801,12.53072,11.304889,3.336985;
6802,14.09706,18.428331,2.3699405;
6803,3.214402,17.815414,4.671779;
6804,7.164303,0.8036005,0.19068487;
6805,12.258313,15.322891,4.671779;
6806,5.012288,10.95076,2.6832085;
6807,8.62168,17.120777,2.4108016;
6808,-3.405087,12.9529505,2.5333846;
6809,1.4573772,3.0645783,3.636633;
6810,-1.6480621,19.57244,-1.920469;
6811,5.6252036,1.9885708,3.1463003;
6812,-2.8330324,0.84446156,2.7921712;
6813,7.1234417,2.4516625,0.53119355;
6814,0.88532263,16.43976,-4.7943625;
6815,12.067628,11.413852,3.0237172;
6816,-7.9679036,-9.697687,-13.824653;
6817,-4.9850473,10.651112,-8.008764;
6818,1.2258313,13.6748295,-0.7627395;
6819,-0.9125633,5.175732,3.718355;
6820,-1.3756552,5.053149,0.92618364;
6821,-3.0237172,19.57244,-4.099725;
6822,4.9850473,5.6660647,2.982856;
6823,-5.706926,-8.853226,-5.938472;
6824,4.372132,11.536434,1.4165162;
6825,5.434519,16.930092,-0.8036005;
6826,-4.0180025,7.082581,2.9556155;
6827,6.510526,2.3426998,3.0237172;
6828,6.932757,17.311462,-3.0645783;
6829,-2.7240696,19.531578,5.284695;
6830,0.27240697,2.070293,2.3699405;
6831,3.405087,6.5922484,-5.202973;
6832,-9.193735,8.730643,3.718355;
6833,6.973618,3.486809,1.8387469;
6834,5.706926,11.645397,-0.9942854;
6835,9.80665,18.768839,3.214402;
6836,-7.3958488,-11.75436,-14.206022;
6837,2.3426998,19.15021,-4.862464;
6838,17.079916,18.305748,3.445948;
6839,0.23154591,4.2086873,3.636633;
6840,2.8738933,5.6252036,-0.9942854;
6841,8.580819,19.231932,3.5957718;
6842,-6.2789803,-8.499097,-7.082581;
6843,4.399372,16.167353,2.4925237;
6844,8.240311,15.745122,-1.9477097;
6845,-4.5219555,9.765789,3.568531;
6846,-0.040861044,2.8330324,3.759216;
6847,-2.4108016,19.531578,5.8976107;
6848,-5.202973,-4.630918,-3.1054392;
6849,7.0553403,16.657684,11.413852;
6850,2.9556155,11.34575,-4.903325;
6851,-5.8976107,11.073342,2.8330324;
6852,7.6954966,3.1463003,2.9556155;
6853,-2.5333846,19.15021,-3.255263;
6854,13.484144,14.328606,1.9477097;
6855,6.5922484,17.2025,12.176591;
6856,7.5456724,11.141444,-3.9771416;
6857,12.489859,16.126492,5.175732;
6858,4.0588636,0.84446156,1.6889231;
6859,-5.706926,-9.384419,-12.108489;
6860,-7.273266,12.217452,-6.0201936;
6861,11.34575,19.531578,1.2666923;
6862,-7.6273947,11.264028,3.445948;
6863,1.607201,1.920469,2.8738933;
6864,-6.6331096,19.57244,-2.2201166;
6865,4.2495484,9.043911,4.0180025;
6866,-5.938472,1.4982382,-0.53119355;
6867,-0.27240697,7.014479,-7.04172;
6868,11.032481,14.246883,7.0553403;
6869,9.112013,1.56634,0.7218784;
6870,3.718355,12.762266,-3.0237172;
6871,-7.3141265,19.57244,4.5628166;
6872,12.871228,15.704261,3.8681788;
6873,-5.6252036,14.669114,-6.701211;
6874,16.467001,18.155924,1.9885708;
6875,-0.08172209,4.140586,3.173541;
6876,4.2086873,4.7943625,-1.3075534;
6877,7.3549876,19.57244,3.255263;
6878,-3.0645783,-8.689782,-5.407278;
6879,9.152874,13.021052,4.7535014;
6880,3.5957718,10.419566,-0.88532263;
6881,-2.4516625,4.7126403,2.4516625;
6882,1.1849703,4.1814466,-0.88532263;
6883,1.7978859,18.659876,2.4108016;
6884,-5.706926,-7.504812,-7.5865335;
6885,2.3426998,15.050485,1.607201;
6886,10.691973,18.196785,-0.42223078;
6887,1.6889231,4.4810944,3.445948;
6888,3.6774938,3.636633,-1.7297841;
6889,5.8567495,19.57244,3.5957718;
6890,-0.5720546,-9.234595,-6.1700177;
6891,5.597963,14.09706,4.862464;
6892,4.0180025,11.686258,-2.4516625;
6893,-7.04172,12.408136,3.9090397;
6894,0.7218784,1.4165162,3.0237172;
6895,4.7943625,12.299174,-2.1383946;
6896,-5.09401,19.57244,4.140586;
6897,12.408136,13.865514,3.0645783;
6898,-6.5513873,-10.501288,-11.9450445;
6899,-4.0588636,9.507003,-3.8681788;
6900,12.026767,19.381754,-0.3405087;
6901,3.5276701,3.336985,2.8738933;
6902,3.568531,0.84446156,3.9090397;
6903,-7.4639506,19.57244,-0.6946377;
6904,4.2086873,6.66035,3.1463003;
6905,-0.84446156,4.0180025,6.932757;
6906,0.50395286,1.2666923,-5.7477865;
6907,-0.61291564,12.408136,5.5571017;
6908,7.7772183,0.92618364,1.6889231;
6909,-7.3549876,-9.193735,-9.00305;
6910,3.0645783,16.167353,-0.14982383;
6911,10.800936,17.965239,-1.1441092;
6912,-7.3549876,12.762266,3.568531;
6913,10.079058,-1.879608,1.920469;
6914,-1.2258313,19.531578,3.173541;
6915,-2.7921712,-2.7513103,-1.1168685;
6916,5.09401,15.28203,4.2495484;
6917,5.09401,13.756551,-3.214402;
6918,-10.269742,13.824653,2.3018389;
6919,8.281172,2.5606253,2.6014864;
6920,1.2666923,11.536434,-2.1792557;
6921,-7.164303,19.57244,3.5276701;
6922,6.510526,11.182305,-3.9499009;
6923,-2.070293,6.0201936,4.7535014;
6924,8.430995,0.92618364,0.14982383;
6925,2.6014864,3.214402,3.336985;
6926,-9.765789,19.57244,2.5333846;
6927,15.745122,14.750836,2.5606253;
6928,4.099725,17.393185,3.214402;
6929,14.669114,19.19107,-1.334794;
6930,-3.636633,11.141444,6.5922484;
6931,8.580819,0.6537767,1.9477097;
6932,-1.9885708,19.381754,-3.173541;
6933,2.4108016,19.313654,4.099725;
6934,8.19945,8.281172,2.4925237;
6935,5.7477865,2.7649305,-4.3312707;
6936,-1.7978859,11.032481,6.66035;
6937,11.304889,0.6946377,0.040861044;
6938,13.988097,18.34661,1.9885708;
6939,6.3198414,8.689782,-4.4810944;
6940,-3.2961242,8.921328,1.9477097;
6941,6.469665,2.7649305,1.9885708;
6942,4.8216033,8.539958,-0.9125633;
6943,9.534244,18.278507,2.8738933;
6944,-6.0882955,-8.880466,-8.390134;
6945,3.5957718,16.43976,3.486809;
6946,9.765789,19.041246,-1.7978859;
6947,-5.053149,8.240311,3.173541;
6948,4.7943625,0.7218784,2.8330324;
6949,0.92618364,19.531578,3.5276701;
6950,8.730643,8.689782,2.4108016;
6951,6.851035,10.691973,-3.759216;
6952,-7.1234417,11.686258,3.5276701;
6953,6.1700177,3.0237172,2.6014864;
6954,-1.0760075,19.57244,4.4810944;
6955,3.8273177,11.985906,0.38136974;
6956,6.742072,18.0061,-2.1792557;
6957,1.6889231,15.28203,7.6273947;
6958,10.269742,0.5720546,1.3075534;
6959,-5.053149,19.381754,-2.8330324;
6960,-0.6537767,19.57244,2.7921712;
6961,8.580819,10.923519,3.3778462;
6962,10.337844,18.918663,-2.7240696;
6963,-1.3756552,7.164303,2.6423476;
6964,8.853226,0.95342433,1.4573772;
6965,-8.267551,19.57244,1.4982382;
6966,14.560152,16.88923,2.152015;
6967,2.8330324,9.466142,-3.8681788;
6968,6.2108784,19.109348,-2.070293;
6969,3.3778462,13.947236,6.932757;
6970,10.991621,0.95342433,0.7627395;
6971,-0.19068487,18.768839,-5.7477865;
6972,-4.862464,19.57244,3.7864566;
6973,-2.3018389,10.61025,-3.405087;
6974,6.4424243,18.918663,0.42223078;
6975,-5.8567495,9.043911,4.2086873;
6976,-4.7535014,19.57244,-3.1054392;
6977,6.469665,18.727978,2.0294318;
6978,-8.308413,11.182305,-8.689782;
6979,8.499097,19.531578,-0.14982383;
6980,-1.9885708,6.6331096,4.3312707;
6981,9.084772,0.95342433,0.5720546;
6982,-1.3075534,19.19107,-2.8330324;
6983,2.6423476,19.504337,3.8681788;
6984,12.4489975,10.501288,-3.445948;
6985,5.407278,15.976667,8.240311;
6986,12.108489,0.10896278,-0.23154591;
6987,6.66035,19.422615,2.2201166;
6988,2.3426998,2.6423476,2.1111538;
6989,-3.7864566,16.589584,-5.175732;
6990,-0.42223078,-1.1441092,-8.689782;
6991,-0.23154591,11.75436,5.8976107;
6992,9.615966,0.50395286,-0.0;
6993,-2.5333846,18.38747,-4.0180025;
6994,4.3312707,19.57244,3.8681788;
6995,9.765789,10.800936,3.568531;
6996,4.399372,11.223166,-4.5628166;
6997,-5.325556,8.076866,2.0294318;
6998,9.847511,3.336985,2.7921712;
6999,16.507862,14.369467,2.3426998;
7000,-1.4165162,13.293459,-1.9477097;
7001,9.343558,19.531578,1.2258313;
7002,3.2961242,12.598822,5.938472;
7003,9.615966,1.7570249,0.53119355;
7004,2.8330324,17.161638,-6.0882955;
7005,-7.9679036,19.57244,5.7477865;
7006,-8.580819,13.824653,-6.701211;
7007,14.328606,17.883516,2.7921712;
7008,4.2495484,3.1054392,3.9499009;
7009,1.9477097,1.3075534,4.5219555;
7010,-7.8589406,19.57244,0.61291564;
7011,4.2086873,2.5333846,2.152015;
7012,-2.2609777,4.0180025,2.4108016;
7013,5.366417,12.367276,-2.982856;
7014,7.5456724,14.437569,7.504812;
7015,8.580819,0.7218784,0.61291564;
7016,-0.84446156,18.496431,-5.5571017;
7017,0.53119355,19.531578,2.7649305;
7018,-0.19068487,8.076866,7.164303;
7019,-0.3405087,-2.6014864,-8.62168;
7020,13.756551,19.531578,2.6423476;
7021,-3.636633,9.724928,3.9090397;
7022,8.539958,2.2201166,1.7570249;
7023,3.6774938,0.84446156,2.6014864;
7024,-0.42223078,19.57244,3.8273177;
7025,-7.7772183,-11.304889,-14.982383;
7026,-7.504812,9.575105,-6.510526;
7027,6.851035,19.231932,0.08172209;
7028,2.1111538,5.2165933,4.0180025;
7029,6.3198414,-0.27240697,2.6014864;
7030,-2.2201166,19.272793,-3.9499009;
7031,0.46309182,19.57244,3.568531;
7032,-7.8861814,12.571581,-5.7477865;
7033,14.9006605,17.434046,1.4165162;
7034,-3.636633,11.114203,3.759216;
7035,6.973618,0.38136974,2.2201166;
7036,6.8237944,15.826844,11.372991;
7037,6.2789803,8.19945,-3.9090397;
7038,-4.1814466,11.686258,4.0180025;
7039,3.9090397,5.8567495,5.175732;
7040,3.0645783,5.134871,-0.61291564;
7041,4.944186,19.041246,1.3756552;
7042,5.8567495,4.399372,2.4516625;
7043,8.19945,5.053149,-5.134871;
7044,4.2904096,12.489859,6.4015636;
7045,9.384419,1.3756552,0.8036005;
7046,17.011814,14.437569,2.6832085;
7047,6.891896,14.859799,2.4925237;
7048,7.504812,16.780268,-0.7218784;
7049,-1.9477097,8.812365,1.9477097;
7050,2.5606253,0.9942854,2.9147544;
7051,-9.80665,19.57244,4.671779;
7052,-2.9147544,-4.1814466,-2.5606253;
7053,5.134871,15.050485,13.021052;
7054,2.1111538,6.0474343,-5.8976107;
7055,-7.082581,9.112013,3.255263;
7056,2.4108016,1.4573772,4.1814466;
7057,-6.973618,19.57244,-0.7627395;
7058,6.1700177,4.3312707,2.3699405;
7059,0.08172209,6.0474343,6.510526;
7060,7.246025,0.38136974,-5.284695;
7061,6.5513873,17.543009,-1.0760075;
7062,-7.5865335,10.119919,2.5333846;
7063,10.56939,0.38136974,0.040861044;
7064,1.1849703,17.079916,-5.175732;
7065,-1.7297841,19.57244,3.9499009;
7066,12.9529505,10.038197,2.9147544;
7067,4.3312707,9.343558,-6.0474343;
7068,-8.349273,10.419566,3.2961242;
7069,4.7535014,2.0294318,2.8330324;
7070,-8.390134,19.57244,0.10896278;
7071,7.6954966,19.15021,0.95342433;
7072,-10.419566,-11.413852,-14.206022;
7073,5.7886477,12.639683,1.1168685;
7074,8.62168,17.62473,-1.6889231;
7075,-3.405087,9.043911,4.4810944;
7076,10.923519,0.14982383,0.84446156;
7077,0.46309182,18.496431,-7.04172;
7078,-4.1814466,19.57244,2.9556155;
7079,13.252599,10.882658,1.6480621;
7080,6.6331096,2.9147544,-3.405087;
7081,-3.445948,11.114203,6.66035;
7082,-2.3018389,8.62168,3.8681788;
7083,-6.6331096,19.57244,-1.9885708;
7084,7.9679036,19.531578,2.152015;
7085,-11.75436,7.273266,-5.8158884;
7086,9.466142,19.463476,0.50395286;
7087,-6.3198414,12.176591,6.0201936;
7088,8.158588,-2.4108016,0.6946377;
7089,-6.891896,19.57244,-2.1383946;
7090,6.1700177,19.57244,1.9477097;
7091,10.56939,6.5513873,-2.9147544;
7092,1.920469,14.015338,4.6036777;
7093,14.9006605,0.23154591,0.50395286;
7094,-2.9147544,-3.0237172,-1.0760075;
7095,0.5720546,7.7772183,8.240311;
7096,4.372132,-4.372132,-4.4810944;
7097,0.313268,10.337844,4.944186;
7098,9.847511,1.1441092,0.84446156;
7099,3.636633,15.595298,-1.8387469;
7100,-4.5219555,19.57244,4.2495484;
7101,8.894087,8.430995,1.6480621;
7102,6.5513873,19.082108,1.0760075;
7103,-0.9942854,8.471856,3.405087;
7104,8.158588,0.19068487,-0.9942854;
7105,-0.46309182,19.381754,2.9147544;
7106,6.4424243,12.762266,4.0180025;
7107,3.336985,8.158588,-5.7886477;
7108,-8.880466,10.119919,2.4925237;
7109,12.026767,2.982856,4.099725;
7110,0.9942854,8.689782,-0.53119355;
7111,-8.158588,19.57244,0.8036005;
7112,-6.8237944,7.668256,-8.076866;
7113,6.3607025,17.352324,-1.879608;
7114,-5.366417,8.730643,4.5628166;
7115,-4.140586,19.504337,-3.486809;
7116,5.6660647,19.463476,1.4982382;
7117,-4.140586,11.645397,-3.445948;
7118,10.841797,18.537292,-0.08172209;
7119,-4.7535014,13.021052,2.152015;
7120,10.56939,0.84446156,2.070293;
7121,2.982856,15.595298,-3.636633;
7122,-3.2961242,19.57244,2.8738933;
7123,-10.147159,8.662541,-0.38136974;
7124,10.269742,19.531578,1.1441092;
7125,-8.19945,10.079058,6.0882955;
7126,6.469665,1.0351465,0.88532263;
7127,4.7943625,8.730643,-0.19068487;
7128,-6.4015636,-6.3198414,-5.202973;
7129,-1.2666923,-0.7218784,-1.3756552;
7130,-2.2201166,11.645397,2.2609777;
7131,15.213928,16.88923,2.8330324;
7132,10.228881,3.1463003,2.9556155;
7133,4.9850473,14.328606,-4.9850473;
7134,-7.4639506,19.57244,3.445948;
7135,9.343558,19.109348,-0.08172209;
7136,-2.1383946,9.384419,3.5276701;
7137,9.956474,2.5333846,1.334794;
7138,-1.9885708,3.9499009,6.4424243;
7139,-5.202973,15.5135765,-3.9499009;
7140,13.715691,19.422615,0.92618364;
7141,1.1168685,6.932757,3.486809;
7142,7.082581,1.9885708,3.214402;
7143,-2.0294318,19.082108,-3.568531;
7144,4.2086873,19.313654,1.4165162;
7145,4.0588636,9.302697,-4.2086873;
7146,13.293459,16.507862,4.903325;
7147,7.205164,3.2961242,2.9556155;
7148,4.399372,15.241169,-4.4810944;
7149,-8.539958,19.57244,4.3312707;
7150,-2.8738933,-0.23154591,-0.53119355;
7151,2.8738933,13.0619135,12.14935;
7152,3.5957718,0.10896278,-7.6546354;
7153,-9.00305,11.727119,2.4925237;
7154,3.173541,1.8387469,4.372132;
7155,-7.273266,19.57244,5.175732;
7156,-5.47538,-4.862464,-0.50395286;
7157,4.7943625,15.976667,10.882658;
7158,4.4810944,-0.19068487,-6.8237944;
7159,-5.366417,11.985906,5.012288;
7160,7.7772183,1.2258313,3.3778462;
7161,-7.273266,19.57244,-4.8216033;
7162,9.084772,19.463476,0.46309182;
7163,6.3607025,14.941522,-2.9556155;
7164,2.7921712,13.252599,7.668256;
7165,8.853226,1.7978859,1.6889231;
7166,2.6014864,1.7978859,2.1792557;
7167,5.325556,18.659876,2.6014864;
7168,5.597963,4.099725,3.0645783;
7169,0.84446156,0.6946377,-5.407278;
7170,6.932757,12.789507,6.4424243;
7171,7.5456724,2.070293,1.4165162;
7172,3.759216,4.099725,1.9477097;
7173,-0.50395286,19.57244,2.4925237;
7174,9.997335,13.211738,3.5957718;
7175,7.273266,0.6537767,-2.6423476;
7176,0.10896278,13.293459,7.164303;
7177,10.079058,2.4925237,-0.0;
7178,-3.214402,19.15021,-4.440233;
7179,9.507003,13.484144,2.6832085;
7180,-4.2904096,-8.008764,-9.234595;
7181,-0.5720546,16.467001,-2.3699405;
7182,11.876944,16.208214,4.7943625;
7183,10.882658,1.7978859,0.7218784;
7184,4.7943625,15.472715,-5.434519;
7185,-7.1234417,19.57244,5.706926;
7186,7.1234417,17.474907,-1.607201;
7187,-6.238119,8.962189,2.9556155;
7188,11.413852,3.336985,1.8387469;
7189,4.903325,13.293459,-3.5276701;
7190,15.935807,15.976667,3.568531;
7191,-4.2904096,-11.727119,-10.378705;
7192,-6.742072,13.865514,-4.7126403;
7193,16.317177,17.815414,2.4925237;
7194,0.6537767,6.973618,4.7535014;
7195,2.3426998,6.1291566,0.61291564;
7196,5.053149,19.57244,2.0294318;
7197,1.4573772,4.9850473,1.9477097;
7198,-4.862464,18.578154,-3.8273177;
7199,0.5720546,-5.938472,-6.701211;
7200,13.593107,19.231932,-0.5720546;
7201,-2.3426998,6.6331096,4.2904096;
7202,2.9147544,3.405087,2.152015;
7203,3.8273177,19.531578,2.8330324;
7204,6.3607025,8.853226,4.1814466;
7205,-6.742072,-5.938472,-6.3607025;
7206,-6.891896,1.8387469,-2.2201166;
7207,10.95076,9.112013,2.2201166;
7208,8.771504,2.4925237,3.0237172;
7209,2.7240696,11.454713,-2.3426998;
7210,-9.152874,19.57244,2.3426998;
7211,8.349273,16.017529,-4.0588636;
7212,12.571581,17.270601,5.7886477;
7213,9.615966,2.6014864,0.19068487;
7214,1.334794,3.0645783,3.8681788;
7215,-4.5900574,19.57244,4.0180025;
7216,-5.7477865,-2.1111538,-0.27240697;
7217,-0.3405087,10.882658,10.923519;
7218,0.95342433,-1.4165162,-7.164303;
7219,-6.428804,9.888372,4.7943625;
7220,5.175732,-0.14982383,4.3312707;
7221,-7.8180795,19.57244,1.4573772;
7222,9.466142,18.700737,2.3018389;
7223,11.454713,8.281172,-2.2201166;
7224,0.6946377,13.865514,7.0553403;
7225,11.073342,1.6480621,0.23154591;
7226,-4.4810944,0.313268,0.38136974;
7227,-3.759216,7.246025,6.469665;
7228,-8.19945,11.073342,-6.4015636;
7229,8.281172,18.34661,-1.9477097;
7230,-0.10896278,5.243834,1.607201;
7231,7.1234417,-0.7218784,1.6889231;
7232,-2.1111538,19.19107,-2.3699405;
7233,0.88532263,19.109348,2.3018389;
7234,4.2086873,12.639683,-1.9477097;
7235,-1.6480621,8.076866,2.1792557;
7236,8.812365,1.2258313,0.7218784;
7237,-7.5865335,19.57244,-1.3075534;
7238,9.575105,18.115063,3.8681788;
7239,7.0553403,18.237646,10.119919;
7240,9.275456,12.026767,-4.4810944;
7241,-7.3549876,14.669114,3.173541;
7242,10.18802,1.5390993,2.070293;
7243,3.173541,2.7649305,3.214402;
7244,-5.47538,19.57244,4.399372;
7245,11.958665,13.797412,3.2961242;
7246,10.760075,14.7916975,3.445948;
7247,1.607201,12.340035,-2.9556155;
7248,10.419566,15.826844,7.3958488;
7249,2.4108016,4.7126403,3.3778462;
7250,6.0474343,0.61291564,0.95342433;
7251,-5.284695,19.57244,0.19068487;
7252,5.366417,12.067628,12.258313;
7253,-9.888372,8.158588,-5.366417;
7254,9.915613,19.531578,1.2666923;
7255,8.008764,1.1849703,0.5720546;
7256,0.08172209,8.921328,-1.9477097;
7257,-7.6273947,19.57244,0.10896278;
7258,9.765789,18.496431,3.173541;
7259,2.070293,18.537292,-2.8330324;
7260,18.727978,19.463476,2.070293;
7261,-2.3018389,10.651112,4.0180025;
7262,1.1849703,19.57244,0.46309182;
7263,10.95076,16.358038,3.9499009;
7264,-8.117727,-6.1700177,-5.5571017;
7265,-5.6252036,13.593107,0.46309182;
7266,-0.040861044,8.853226,-7.8589406;
7267,-12.258313,11.073342,3.568531;
7268,6.5513873,2.3426998,3.0237172;
7269,-0.29964766,8.730643,-0.8036005;
7270,-9.302697,19.57244,-1.0760075;
7271,3.5276701,1.7978859,-4.903325;
7272,13.797412,19.340895,1.7297841;
7273,0.84446156,6.5922484,3.214402;
7274,-6.2789803,-13.443283,-11.645397;
7275,2.6832085,16.317177,-2.1111538;
7276,-0.6946377,-0.29964766,-2.3018389;
7277,9.043911,11.182305,5.09401;
7278,10.378705,1.0351465,1.3756552;
7279,1.1849703,18.46919,-5.243834;
7280,-1.6480621,19.531578,3.718355;
7281,3.255263,-0.3405087,-6.1700177;
7282,2.1111538,8.812365,5.829509;
7283,12.789507,0.88532263,0.7627395;
7284,4.7126403,15.745122,9.697687;
7285,3.7864566,11.563675,-4.903325;
7286,-10.800936,11.141444,3.2961242;
7287,8.076866,6.0474343,5.243834;
7288,6.5513873,7.43671,-0.6946377;
7289,13.824653,18.196785,-0.040861044;
7290,-7.504812,12.598822,-3.5957718;
7291,7.9679036,6.891896,-6.238119;
7292,-8.19945,7.6273947,1.334794;
7293,10.991621,3.255263,2.0294318;
7294,-2.7513103,19.531578,4.1814466;
7295,-11.795221,-11.264028,-12.598822;
7296,-1.7978859,1.8387469,1.607201;
7297,-0.19068487,14.137921,-2.982856;
7298,13.021052,17.434046,5.9793324;
7299,11.645397,3.255263,1.1168685;
7300,5.9793324,15.023244,-6.1291566;
7301,15.213928,15.745122,2.0294318;
7302,-7.3958488,-13.143636,-14.47843;
7303,-9.956474,9.084772,-5.6660647;
7304,12.176591,19.463476,0.7627395;
7305,6.2789803,4.7126403,3.3778462;
7306,3.1054392,0.3405087,4.140586;
7307,-5.407278,19.57244,-2.1111538;
7308,7.504812,19.504337,2.2201166;
7309,6.1291566,4.862464,3.0237172;
7310,9.615966,18.659876,-0.7218784;
7311,0.040861044,6.782933,4.3312707;
7312,4.5219555,3.7864566,2.2609777;
7313,4.944186,19.531578,1.4165162;
7314,10.923519,12.571581,3.7864566;
7315,-6.932757,-9.615966,-9.765789;
7316,7.164303,17.079916,10.501288;
7317,-5.47538,15.785983,-1.920469;
7318,4.8216033,14.1787815,-3.405087;
7319,-6.1700177,8.19945,2.6832085;
7320,1.8387469,3.0237172,5.407278;
7321,-8.539958,19.57244,4.5628166;
7322,-5.8158884,-3.445948,0.53119355;
7323,3.2961242,16.317177,12.53072;
7324,3.5957718,1.5390993,-6.5922484;
7325,-4.7943625,11.917805,5.2165933;
7326,8.308413,0.9942854,0.27240697;
7327,-7.164303,19.57244,-3.8681788;
7328,4.2086873,19.313654,0.27240697;
7329,-0.23154591,11.917805,-1.1849703;
7330,5.5162406,15.976667,-2.8330324;
7331,-7.164303,9.697687,3.336985;
7332,4.5628166,0.9942854,4.140586;
7333,-3.9090397,-1.525479,-2.4925237;
7334,6.5922484,12.571581,1.0760075;
7335,2.2201166,12.340035,-4.630918;
7336,10.882658,14.137921,5.243834;
7337,11.264028,3.5276701,1.4573772;
7338,3.9090397,15.745122,-4.1814466;
7339,17.393185,15.785983,2.982856;
7340,-7.04172,-11.413852,-12.14935;
7341,-7.014479,14.328606,-3.486809;
7342,14.137921,18.278507,1.4573772;
7343,3.445948,4.099725,2.8330324;
7344,3.9090397,1.4982382,1.7978859;
7345,0.6946377,17.270601,-1.0760075;
7346,12.980191,12.489859,4.2904096;
7347,-6.891896,-8.880466,-7.082581;
7348,6.973618,9.534244,6.0474343;
7349,10.800936,2.8738933,0.6946377;
7350,1.607201,10.269742,-2.1111538;
7351,10.732834,17.352324,0.92618364;
7352,-4.7943625,-12.408136,-11.563675;
7353,-3.1054392,9.302697,-1.9477097;
7354,8.730643,17.856276,-1.9885708;
7355,-4.372132,8.390134,4.671779;
7356,9.043911,1.3075534,1.6480621;
7357,-1.0351465,19.19107,-4.862464;
7358,13.947236,11.141444,2.9556155;
7359,-3.568531,11.686258,-4.630918;
7360,8.390134,16.167353,-4.2086873;
7361,-6.1291566,10.923519,3.7864566;
7362,5.134871,15.636159,-7.205164;
7363,-10.882658,19.57244,6.973618;
7364,-8.730643,-4.9850473,-7.1234417;
7365,4.903325,8.662541,-3.7864566;
7366,5.706926,13.33432,-4.099725;
7367,-7.246025,9.697687,2.2201166;
7368,4.7535014,1.7297841,4.6036777;
7369,2.7921712,17.052675,-6.973618;
7370,17.66559,14.328606,3.486809;
7371,-5.7477865,-11.563675,-12.598822;
7372,-8.471856,12.680544,-7.7363577;
7373,12.489859,19.000385,0.88532263;
7374,-8.580819,12.9529505,4.9850473;
7375,2.7649305,0.08172209,3.1463003;
7376,-7.8861814,19.57244,0.040861044;
7377,11.141444,18.700737,0.92618364;
7378,-7.04172,-7.9270425,-3.7864566;
7379,6.973618,15.554437,-3.759216;
7380,6.851035,16.630445,7.3141265;
7381,10.079058,4.2904096,1.6480621;
7382,3.5957718,-0.08172209,4.440233;
7383,-3.636633,19.531578,4.3312707;
7384,10.269742,8.240311,2.9147544;
7385,-5.202973,-0.040861044,-1.4982382;
7386,5.7886477,9.575105,-6.469665;
7387,9.575105,16.126492,7.43671;
7388,10.460427,4.8216033,0.84446156;
7389,6.0201936,14.1787815,-5.5571017;
7390,16.43976,16.657684,1.4982382;
7391,-5.8158884,-11.9450445,-11.686258;
7392,-8.008764,12.258313,-5.284695;
7393,8.62168,18.04696,-1.2666923;
7394,-4.1814466,5.284695,3.9499009;
7395,3.1054392,1.3075534,3.1463003;
7396,-5.407278,19.57244,4.3312707;
7397,-5.9793324,-4.9850473,-3.255263;
7398,3.1054392,15.363752,13.252599;
7399,8.158588,1.334794,-7.8180795;
7400,-6.238119,13.443283,7.7363577;
7401,8.430995,2.070293,0.14982383;
7402,-4.944186,19.531578,-3.173541;
7403,6.510526,6.701211,2.9147544;
7404,-5.012288,4.5219555,3.568531;
7405,-5.9793324,9.765789,-1.9885708;
7406,10.147159,17.733692,-2.4925237;
7407,1.607201,14.560152,7.4639506;
7408,9.507003,2.8330324,-0.14982383;
7409,3.8681788,2.7240696,1.7570249;
7410,2.6014864,19.463476,3.486809;
7411,-7.3141265,-7.164303,-4.099725;
7412,3.9090397,12.789507,3.5957718;
7413,4.944186,14.1787815,-2.1792557;
7414,-7.504812,8.689782,1.920469;
7415,1.1849703,2.3426998,4.3312707;
7416,-11.223166,19.57244,2.9556155;
7417,2.1111538,4.372132,1.7570249;
7418,-4.5628166,5.243834,6.2108784;
7419,-3.0645783,17.24336,-6.66035;
7420,17.270601,19.19107,-1.4165162;
7421,2.070293,4.140586,4.7943625;
7422,5.325556,1.0351465,2.7921712;
7423,2.152015,4.1814466,-1.7570249;
7424,-11.876944,19.57244,3.636633;
7425,6.0882955,1.7570249,-2.6014864;
7426,6.238119,11.536434,5.9793324;
7427,-7.9679036,11.727119,2.3699405;
7428,4.9850473,0.27240697,4.099725;
7429,12.912089,14.056199,2.6832085;
7430,9.575105,17.692831,8.689782;
7431,1.7297841,6.3607025,-5.284695;
7432,-5.8976107,13.021052,4.7943625;
7433,6.510526,0.08172209,1.9477097;
7434,-9.493382,19.57244,-3.405087;
7435,2.7921712,19.531578,1.4573772;
7436,-8.771504,5.2165933,-3.9090397;
7437,14.941522,14.246883,5.5571017;
7438,4.9850473,4.399372,3.8273177;
7439,0.5720546,9.534244,8.812365;
7440,11.645397,6.932757,-1.7978859;
7441,3.1054392,15.132206,7.205164;
7442,11.264028,1.5390993,-0.5720546;
7443,-0.6537767,18.0061,-6.0201936;
7444,15.363752,13.525005,2.9147544;
7445,-7.014479,-9.575105,-10.651112;
7446,-9.425281,10.038197,-4.0180025;
7447,12.258313,19.504337,-0.61291564;
7448,5.325556,3.405087,1.7297841;
7449,-2.3018389,7.205164,-1.4982382;
7450,10.460427,14.519291,3.0237172;
7451,-6.238119,-10.61025,-12.639683;
7452,-9.043911,7.082581,-7.273266;
7453,13.252599,19.381754,1.2258313;
7454,4.372132,4.671779,2.3018389;
7455,0.6537767,9.697687,-1.1849703;
7456,10.800936,16.358038,2.4108016;
7457,-5.407278,-12.639683,-12.340035;
7458,8.049625,14.1787815,9.724928;
7459,3.173541,1.0760075,-7.9679036;
7460,8.771504,19.19107,0.38136974;
7461,-1.3756552,10.95076,4.399372;
7462,9.152874,1.0760075,2.8738933;
7463,8.499097,19.381754,1.6480621;
7464,-8.349273,10.419566,-1.4982382;
7465,5.284695,14.519291,-2.5606253;
7466,-10.147159,14.206022,2.982856;
7467,0.19068487,15.745122,-5.202973;
7468,8.076866,18.087822,4.9850473;
7469,3.214402,11.413852,-3.0237172;
7470,-9.043911,16.317177,3.214402;
7471,4.140586,0.38136974,3.486809;
7472,-0.38136974,6.891896,-1.0760075;
7473,-5.8976107,19.57244,1.3756552;
7474,3.5957718,10.228881,10.228881;
7475,9.656827,6.701211,-2.8738933;
7476,3.486809,16.970953,-0.42223078;
7477,-7.5865335,10.501288,2.8330324;
7478,9.956474,1.607201,2.1792557;
7479,3.1054392,2.1111538,4.7126403;
7480,-3.8681788,19.57244,3.6774938;
7481,15.4046135,14.056199,1.607201;
7482,-6.2789803,-10.691973,-12.789507;
7483,3.9090397,13.906375,12.980191;
7484,7.5865335,5.134871,-4.372132;
7485,2.5333846,10.923519,5.829509;
7486,10.228881,0.46309182,0.95342433;
7487,2.5606253,2.3699405,3.718355;
7488,2.5333846,18.155924,-5.7886477;
7489,0.27240697,19.272793,4.140586;
7490,-4.7126403,15.322891,-5.5162406;
7491,14.2877445,19.463476,-1.8387469;
7492,-3.3642259,6.5922484,4.630918;
7493,3.718355,15.050485,-3.1054392;
7494,-3.336985,19.57244,4.903325;
7495,-6.6331096,-10.460427,-10.56939;
7496,-6.1700177,12.912089,-5.9793324;
7497,6.5513873,18.278507,-1.2666923;
7498,-3.214402,8.894087,2.9556155;
7499,11.645397,0.84446156,0.19068487;
7500,3.5276701,15.363752,-4.372132;
7501,-7.5865335,19.57244,3.990762;
7502,14.1787815,15.595298,2.5333846;
7503,-6.428804,12.9529505,-3.759216;
7504,3.5276701,4.6036777,-3.718355;
7505,-6.469665,11.454713,5.284695;
7506,7.5865335,0.38136974,1.3075534;
7507,2.9556155,4.671779,0.040861044;
7508,4.099725,19.57244,3.336985;
7509,-1.4573772,8.117727,6.510526;
7510,5.8567495,11.304889,-3.9771416;
7511,12.598822,14.410328,6.2108784;
7512,9.043911,2.5333846,1.6480621;
7513,0.10896278,1.6480621,4.2904096;
7514,-10.147159,19.57244,4.7535014;
7515,6.3607025,15.050485,4.5219555;
7516,-0.95342433,12.026767,-2.5606253;
7517,17.474907,15.4046135,1.920469;
7518,3.6774938,4.5628166,3.9499009;
7519,6.469665,9.425281,0.50395286;
7520,14.601013,17.502148,3.2961242;
7521,-6.0201936,-11.536434,-13.484144;
7522,-2.982856,16.43976,-6.742072;
7523,14.2877445,18.46919,-0.14982383;
7524,0.23154591,6.0201936,5.434519;
7525,5.8976107,2.070293,2.152015;
7526,4.5219555,16.780268,-3.3642259;
7527,-4.0180025,17.924377,4.7126403;
7528,11.604536,11.264028,2.7240696;
7529,-6.1700177,-8.049625,-7.7363577;
7530,-5.7477865,16.970953,-4.2495484;
7531,14.206022,18.918663,2.2609777;
7532,-6.1700177,8.62168,3.3778462;
7533,10.460427,1.1168685,0.61291564;
7534,4.7535014,2.1792557,2.0294318;
7535,6.4424243,19.504337,2.070293;
7536,-0.5720546,11.836082,11.34575;
7537,2.3018389,-0.10896278,-7.164303;
7538,3.6774938,10.923519,5.829509;
7539,-0.50395286,5.5571017,3.445948;
7540,4.7943625,2.5606253,0.42223078;
7541,-1.8387469,19.57244,3.173541;
7542,11.958665,15.785983,4.0588636;
7543,4.7126403,13.756551,-2.1111538;
7544,-7.9270425,10.841797,3.2961242;
7545,1.4573772,1.2258313,4.8216033;
7546,-8.730643,19.57244,2.0294318;
7547,4.1814466,3.6774938,4.9850473;
7548,-2.4108016,3.990762,4.5219555;
7549,10.310603,3.7864566,-5.47538;
7550,12.680544,12.026767,3.759216;
7551,-7.8861814,9.997335,3.336985;
7552,2.070293,4.140586,3.173541;
7553,-3.405087,19.57244,3.5276701;
7554,12.639683,13.525005,4.3312707;
7555,-2.8738933,13.375181,-0.19068487;
7556,9.234595,4.6036777,-3.6774938;
7557,-0.3405087,13.184497,5.8976107;
7558,-5.175732,7.504812,4.862464;
7559,11.032481,11.34575,4.2495484;
7560,-5.6660647,-4.944186,-2.9556155;
7561,3.8681788,16.04477,13.402422;
7562,5.47538,4.5628166,-6.1700177;
7563,2.2201166,11.645397,5.7477865;
7564,2.8330324,4.7535014,4.140586;
7565,7.3549876,-0.38136974,2.3699405;
7566,-7.7772183,19.57244,-3.7864566;
7567,10.61025,19.381754,1.56634;
7568,5.8976107,8.158588,3.173541;
7569,1.8387469,16.86199,-0.61291564;
7570,-1.9477097,6.3198414,3.9499009;
7571,-9.302697,19.57244,-3.1054392;
7572,-3.3642259,3.173541,3.1054392;
7573,6.3198414,12.217452,-5.938472;
7574,12.680544,15.050485,3.5957718;
7575,8.308413,2.3426998,1.4982382;
7576,3.486809,11.032481,-1.8387469;
7577,-11.304889,19.57244,3.5957718;
7578,14.137921,14.246883,3.990762;
7579,-5.407278,-1.7570249,-3.445948;
7580,1.0351465,17.393185,-2.8738933;
7581,15.826844,18.196785,2.7921712;
7582,3.1054392,3.445948,2.070293;
7583,3.990762,2.3018389,2.4108016;
7584,-1.8387469,19.272793,-0.9125633;
7585,6.0201936,12.912089,3.718355;
7586,-6.510526,-0.19068487,-1.607201;
7587,-0.88532263,11.686258,-3.486809;
7588,14.410328,13.906375,6.0474343;
7589,8.771504,2.9556155,0.38136974;
7590,8.158588,11.536434,-1.6480621;
7591,11.958665,17.352324,3.7864566;
7592,2.1111538,9.507003,-2.3018389;
7593,-1.4982382,7.6273947,3.6774938;
7594,3.9090397,-0.8036005,1.7570249;
7595,-5.175732,-6.891896,-7.1234417;
7596,-5.09401,13.988097,0.10896278;
7597,-0.38136974,1.879608,-9.043911;
7598,-8.049625,12.830367,6.701211;
7599,5.9793324,1.0760075,1.9885708;
7600,-8.921328,19.57244,-2.5333846;
7601,11.645397,18.918663,1.334794;
7602,-6.3198414,15.023244,-3.8681788;
7603,13.797412,19.109348,1.3075534;
7604,-3.1463003,5.8567495,3.486809;
7605,5.829509,0.6946377,1.8387469;
7606,4.1814466,19.531578,3.0237172;
7607,6.4015636,13.102775,8.894087;
7608,-3.8273177,14.1787815,-3.0645783;
7609,17.311462,16.657684,0.84446156;
7610,-0.84446156,11.645397,4.4810944;
7611,9.275456,1.3075534,0.8036005;
7612,0.95342433,17.543009,-3.486809;
7613,-4.862464,19.463476,3.9090397;
7614,-9.466142,12.340035,-4.2086873;
7615,9.615966,19.231932,0.6946377;
7616,-0.9942854,6.973618,4.5219555;
7617,-8.962189,19.57244,-3.0237172;
7618,10.528529,18.659876,1.4982382;
7619,0.23154591,11.114203,10.56939;
7620,-5.8567495,15.894946,-3.5957718;
7621,15.6634,16.276316,2.982856;
7622,-2.8738933,5.938472,4.0588636;
7623,10.119919,0.313268,2.2609777;
7624,-6.0882955,19.463476,-3.568531;
7625,3.0645783,19.57244,0.313268;
7626,5.134871,7.6273947,3.3778462;
7627,10.760075,19.504337,0.7218784;
7628,-2.3426998,6.1291566,3.990762;
7629,-2.6014864,19.340895,-4.2495484;
7630,3.0237172,19.15021,0.95342433;
7631,-4.372132,3.445948,5.8567495;
7632,-2.6832085,-3.173541,-6.1700177;
7633,6.4015636,11.372991,2.9556155;
7634,9.507003,1.7978859,1.2666923;
7635,4.2086873,12.789507,-2.7240696;
7636,-9.615966,19.531578,5.597963;
7637,-4.399372,11.073342,-4.5628166;
7638,11.645397,14.669114,3.568531;
7639,4.630918,3.5957718,1.334794;
7640,-0.10896278,10.419566,-2.070293;
7641,2.0294318,19.422615,2.9556155;
7642,1.6889231,-12.489859,-5.8976107;
7643,-10.501288,13.906375,-3.759216;
7644,8.730643,19.231932,-0.61291564;
7645,-0.61291564,7.668256,4.0180025;
7646,7.8589406,1.1849703,0.5720546;
7647,-5.134871,18.891422,-5.325556;
7648,-0.19068487,19.463476,3.568531;
7649,7.668256,12.830367,3.990762;
7650,5.5571017,19.109348,1.5390993;
7651,-7.9679036,10.119919,3.6774938;
7652,9.888372,0.7218784,0.53119355;
7653,-1.1849703,1.6889231,2.9147544;
7654,3.6774938,10.501288,8.390134;
7655,-0.8036005,0.92618364,-7.8861814;
7656,-7.5456724,11.495573,3.990762;
7657,6.973618,-0.10896278,2.6423476;
7658,-8.240311,19.57244,-3.214402;
7659,8.158588,16.88923,2.9147544;
7660,6.3198414,7.0553403,5.597963;
7661,3.759216,8.499097,-3.8681788;
7662,6.469665,11.073342,5.012288;
7663,7.504812,1.7570249,1.1168685;
7664,-4.099725,-12.340035,-10.7192135;
7665,1.9885708,16.317177,2.982856;
7666,-0.10896278,5.175732,-4.1814466;
7667,13.525005,12.571581,3.8681788;
7668,8.499097,2.1111538,2.1111538;
7669,1.4982382,17.66559,-6.2108784;
7670,-4.440233,19.57244,4.630918;
7671,14.669114,16.249075,2.982856;
7672,-0.6537767,-1.0760075,-5.8567495;
7673,5.5162406,9.425281,5.434519;
7674,-6.428804,9.888372,5.325556;
7675,4.7126403,2.9556155,3.405087;
7676,-4.7535014,19.57244,5.6660647;
7677,-4.099725,-2.3699405,0.53119355;
7678,-3.214402,7.6273947,8.390134;
7679,-0.38136974,-3.336985,-5.9793324;
7680,0.88532263,9.384419,5.366417;
7681,10.038197,0.23154591,-0.38136974;
7682,-1.879608,19.272793,-5.8158884;
7683,2.1792557,18.496431,3.3778462;
7684,-2.4516625,-5.7477865,-6.742072;
7685,-5.053149,10.95076,2.3699405;
7686,8.499097,0.6946377,3.1463003;
7687,-0.6946377,16.780268,-3.486809;
7688,12.489859,19.381754,0.14982383;
7689,2.152015,7.246025,4.399372;
7690,9.084772,0.46309182,0.84446156;
7691,4.399372,16.358038,-5.7477865;
7692,-7.6273947,19.531578,4.944186;
7693,-0.23154591,12.980191,-2.6423476;
7694,15.935807,16.017529,1.2666923;
7695,0.42223078,7.082581,3.5276701;
7696,-11.917805,19.57244,4.671779;
7697,-2.2609777,-10.079058,-10.61025;
7698,-1.8387469,15.023244,-0.7627395;
7699,13.525005,19.19107,-0.95342433;
7700,5.366417,5.053149,2.4108016;
7701,4.2904096,0.42223078,5.325556;
7702,-4.630918,19.57244,-2.7240696;
7703,7.3958488,16.589584,2.070293;
7704,9.193735,10.419566,4.6036777;
7705,16.507862,15.6634,-0.0;
7706,3.568531,5.7886477,3.6774938;
7707,5.6660647,1.607201,4.8216033;
7708,-11.795221,19.57244,3.445948;
7709,-1.7570249,-0.95342433,1.3756552;
7710,-0.7627395,10.95076,10.228881;
7711,-2.7921712,-3.445948,-5.9793324;
7712,-3.759216,11.645397,4.099725;
7713,5.9793324,0.08172209,3.9090397;
7714,-13.293459,19.57244,2.0294318;
7715,13.375181,16.821129,0.88532263;
7716,6.701211,13.565866,-2.5606253;
7717,-4.2086873,10.651112,2.7921712;
7718,5.325556,1.1168685,4.9850473;
7719,-5.9793324,-7.7363577,-8.117727;
7720,-0.46309182,11.223166,-3.568531;
7721,13.715691,15.023244,3.445948;
7722,1.4165162,6.4424243,3.486809;
7723,6.5513873,1.3756552,3.9090397;
7724,-11.985906,19.57244,-3.568531;
7725,9.575105,19.082108,1.1168685;
7726,11.073342,18.659876,-1.3075534;
7727,-3.0237172,8.539958,3.5276701;
7728,7.9679036,1.8387469,0.53119355;
7729,3.1463003,16.930092,-5.5571017;
7730,13.865514,16.208214,2.6423476;
7731,-3.1463003,-9.384419,-9.466142;
7732,0.27240697,16.017529,-3.405087;
7733,13.0619135,15.554437,3.636633;
7734,5.134871,3.6774938,2.3699405;
7735,6.782933,15.894946,-5.325556;
7736,14.818938,14.2877445,1.8387469;
7737,-4.671779,-5.202973,-0.8036005;
7738,-6.0882955,-7.8180795,-8.390134;
7739,-1.3075534,16.630445,-2.3699405;
7740,12.108489,18.700737,0.19068487;
7741,-1.7570249,9.575105,3.336985;
7742,7.014479,-1.9885708,3.336985;
7743,-9.888372,19.57244,-4.0180025;
7744,3.990762,18.537292,-0.46309182;
7745,9.915613,13.565866,3.990762;
7746,-0.23154591,-4.099725,-5.175732;
7747,-1.920469,9.656827,3.7864566;
7748,8.349273,0.14982383,1.879608;
7749,3.718355,18.659876,0.7218784;
7750,-3.0237172,-7.6546354,-7.7363577;
7751,1.9477097,8.076866,9.575105;
7752,-0.88532263,-1.2666923,-4.8216033;
7753,0.42223078,9.615966,3.3778462;
7754,7.082581,-0.88532263,2.070293;
7755,-0.6946377,18.278507,-5.134871;
7756,-2.3018389,19.531578,2.6423476;
7757,-0.50395286,16.017529,-3.486809;
7758,13.756551,18.237646,0.46309182;
7759,-5.938472,11.114203,3.718355;
7760,-6.0201936,-5.8567495,-2.2609777;
7761,5.706926,15.28203,7.082581;
7762,6.701211,12.871228,-2.2609777;
7763,13.824653,13.375181,3.7864566;
7764,4.671779,3.990762,3.2961242;
7765,4.630918,10.528529,-0.040861044;
7766,12.367276,18.38747,1.920469;
7767,2.1111538,7.8589406,2.3018389;
7768,4.3312707,3.214402,-3.5957718;
7769,8.62168,18.087822,-0.84446156;
7770,-2.3426998,7.9270425,2.4516625;
7771,-3.336985,19.463476,-3.5276701;
7772,4.3312707,19.422615,1.7978859;
7773,-1.9885708,9.384419,7.3549876;
7774,5.8567495,4.3312707,-2.7921712;
7775,8.349273,12.639683,4.2086873;
7776,8.62168,2.8330324,1.9477097;
7777,4.440233,14.628253,-3.3642259;
7778,-11.686258,19.57244,3.0645783;
7779,16.04477,17.352324,4.372132;
7780,2.6832085,16.930092,-1.7297841;
7781,16.317177,17.270601,-0.38136974;
7782,-0.95342433,7.5865335,5.407278;
7783,12.871228,-1.334794,-0.53119355;
7784,1.4573772,4.630918,2.070293;
7785,8.390134,7.246025,4.440233;
7786,-5.8567495,-1.6889231,0.46309182;
7787,4.7943625,8.349273,-3.568531;
7788,10.460427,13.593107,4.2495484;
7789,9.615966,3.5957718,3.1463003;
7790,5.366417,16.126492,-5.175732;
7791,-10.038197,19.57244,4.140586;
7792,3.0237172,1.2258313,-4.2086873;
7793,-5.706926,13.102775,5.6252036;
7794,11.032481,-0.8036005,0.88532263;
7795,3.5276701,11.223166,-1.334794;
7796,-4.2495484,-11.645397,-10.147159;
7797,0.88532263,10.760075,-0.08172209;
7798,5.5162406,11.264028,-3.3642259;
7799,-7.5456724,12.367276,3.1463003;
7800,7.5865335,-0.7627395,2.6014864;
7801,-10.691973,19.57244,3.0237172;
7802,16.589584,18.891422,2.8330324;
7803,0.42223078,0.23154591,-5.09401;
7804,-7.6273947,10.651112,4.0180025;
7805,7.3141265,0.84446156,1.0760075;
7806,4.2086873,9.80665,0.313268;
7807,-3.0237172,7.3141265,7.6273947;
7808,0.7627395,-1.7297841,-5.243834;
7809,-4.5628166,10.337844,6.5513873;
7810,-0.9942854,5.5162406,3.3778462;
7811,2.4516625,4.3312707,-0.50395286;
7812,-0.50395286,19.57244,1.879608;
7813,-6.510526,15.023244,-4.2904096;
7814,9.302697,18.578154,-1.7297841;
7815,-5.5571017,10.56939,4.140586;
7816,11.141444,1.1168685,0.46309182;
7817,3.8273177,1.7570249,3.2961242;
7818,1.879608,19.57244,1.4573772;
7819,13.565866,12.53072,3.2961242;
7820,-5.407278,-8.19945,-7.6273947;
7821,2.9556155,12.680544,4.862464;
7822,1.1168685,8.117727,-3.9771416;
7823,-6.2108784,9.997335,4.099725;
7824,5.5571017,0.0,2.4516625;
7825,-3.445948,19.531578,-4.944186;
7826,3.8681788,19.381754,1.334794;
7827,2.5333846,3.7864566,-5.366417;
7828,-4.7943625,10.95076,3.759216;
7829,-0.6946377,8.076866,5.325556;
7830,-9.997335,19.531578,4.1814466;
7831,-2.5333846,3.486809,5.5162406;
7832,5.366417,-1.6480621,-4.5628166;
7833,-1.1168685,11.413852,5.407278;
7834,-0.61291564,5.134871,5.366417;
7835,7.082581,1.1168685,1.4573772;
7836,-7.8861814,19.57244,-4.099725;
7837,5.325556,19.504337,1.920469;
7838,-0.14982383,16.780268,-3.3642259;
7839,13.443283,18.305748,-0.6537767;
7840,2.4925237,6.1291566,5.5571017;
7841,8.662541,-0.46309182,1.8387469;
7842,2.6423476,7.7772183,0.7627395;
7843,-4.7943625,-3.0237172,-2.6832085;
7844,8.499097,12.912089,-1.334794;
7845,6.782933,13.021052,-1.1168685;
7846,-7.8589406,12.176591,2.4925237;
7847,2.982856,2.4108016,4.5219555;
7848,-8.580819,19.57244,3.255263;
7849,1.4982382,5.7886477,3.486809;
7850,-3.5276701,3.445948,4.7943625;
7851,9.00305,7.8861814,-0.7218784;
7852,-0.61291564,11.645397,5.7886477;
7853,-1.3075534,7.3549876,4.5628166;
7854,3.759216,5.6660647,2.1111538;
7855,-8.499097,19.57244,-4.9850473;
7856,10.038197,19.109348,0.9942854;
7857,-2.1383946,0.9942854,0.38136974;
7858,-2.4925237,5.706926,-4.2495484;
7859,-6.1291566,13.715691,4.1814466;
7860,1.920469,5.9793324,5.366417;
7861,9.425281,18.537292,1.9885708;
7862,7.082581,8.471856,2.2201166;
7863,-3.759216,5.829509,1.3075534;
7864,2.3426998,12.4489975,-3.0237172;
7865,11.495573,15.854085,4.2495484;
7866,5.134871,-0.6946377,3.5276701;
7867,-10.460427,19.57244,-0.7627395;
7868,9.043911,19.19107,0.8036005;
7869,8.689782,4.4810944,-2.4108016;
7870,-1.1441092,10.651112,3.8273177;
7871,-6.0474343,9.534244,2.7921712;
7872,-13.293459,19.57244,0.42223078;
7873,14.519291,18.237646,1.607201;
7874,0.6537767,10.732834,3.7864566;
7875,9.343558,18.891422,-0.42223078;
7876,1.2258313,10.501288,4.1814466;
7877,10.147159,1.1168685,1.0760075;
7878,4.372132,2.7921712,5.366417;
7879,-4.7535014,19.57244,4.7126403;
7880,-0.84446156,10.269742,9.275456;
7881,2.070293,0.84446156,-5.134871;
7882,1.6480621,10.310603,5.407278;
7883,7.9270425,1.56634,-0.38136974;
7884,-8.390134,19.531578,-4.440233;
7885,6.469665,19.531578,1.56634;
7886,-6.0201936,-9.193735,-5.8567495;
7887,5.597963,15.132206,6.238119;
7888,1.920469,5.829509,-2.5333846;
7889,11.34575,12.489859,3.0237172;
7890,11.985906,1.1168685,1.334794;
7891,2.4925237,3.486809,4.6036777;
7892,13.756551,16.589584,4.140586;
7893,5.8567495,5.012288,-1.56634;
7894,6.2108784,11.073342,5.053149;
7895,10.18802,2.6014864,1.7570249;
7896,-10.038197,19.57244,3.336985;
7897,17.079916,16.467001,3.759216;
7898,2.3699405,17.393185,-0.7218784;
7899,9.997335,14.7916975,-3.336985;
7900,-7.082581,13.633968,2.4108016;
7901,7.273266,0.95342433,3.173541;
7902,-10.501288,19.57244,0.27240697;
7903,2.7240696,18.04696,-3.8681788;
7904,13.0619135,17.965239,-2.9147544;
7905,-5.5162406,11.876944,2.8738933;
7906,4.0588636,3.445948,4.4810944;
7907,2.982856,17.474907,-8.049625;
7908,14.410328,16.167353,2.6832085;
7909,-2.8738933,-11.454713,-8.430995;
7910,0.5720546,18.0061,-2.4516625;
7911,13.6748295,18.578154,-2.1111538;
7912,-3.759216,8.730643,4.862464;
7913,10.378705,0.38136974,-0.6537767;
7914,-2.0294318,18.700737,-5.7886477;
7915,-1.7978859,19.57244,3.2961242;
7916,15.636159,13.443283,3.2961242;
7917,4.399372,0.8036005,-4.3312707;
7918,0.7627395,11.536434,4.5628166;
7919,10.760075,2.1792557,1.2666923;
7920,4.7535014,3.990762,1.7570249;
7921,-7.7363577,19.57244,5.2165933;
7922,11.917805,18.196785,0.3405087;
7923,0.9942854,10.841797,11.413852;
7924,-4.3312707,10.991621,-4.5900574;
7925,17.434046,18.115063,-0.3405087;
7926,-0.7218784,7.8589406,4.7943625;
7927,8.894087,-0.6946377,1.56634;
7928,-7.504812,19.57244,-4.7126403;
7929,10.378705,19.082108,1.0760075;
7930,-3.6774938,-11.686258,-11.114203;
7931,-2.5333846,4.7535014,7.082581;
7932,-4.7126403,14.056199,-1.0760075;
7933,-2.7513103,9.302697,3.568531;
7934,10.882658,-0.84446156,-0.9942854;
7935,-2.1792557,19.57244,4.2904096;
7936,14.669114,16.698545,4.5219555;
7937,-4.7126403,2.3426998,2.9556155;
7938,6.0201936,9.888372,-1.7297841;
7939,6.4424243,11.413852,-2.5606253;
7940,-8.19945,12.067628,2.152015;
7941,10.119919,2.6014864,1.7978859;
7942,4.7943625,13.6748295,-5.284695;
7943,-10.310603,19.57244,4.671779;
7944,15.322891,17.733692,0.42223078;
7945,2.7649305,8.539958,-2.1792557;
7946,13.756551,12.680544,2.5606253;
7947,-5.202973,14.9006605,3.6774938;
7948,7.43671,-1.1168685,1.1168685;
7949,13.211738,12.067628,4.099725;
7950,9.234595,6.238119,-1.6889231;
7951,-0.6537767,12.14935,5.5162406;
7952,9.697687,1.4573772,0.8036005;
7953,-0.42223078,17.079916,-6.2789803;
7954,-5.597963,19.57244,3.405087;
7955,8.076866,14.859799,-1.4165162;
7956,13.593107,15.091345,4.2904096;
7957,7.273266,3.9499009,2.1792557;
7958,5.284695,13.6748295,-5.325556;
7959,14.859799,14.709975,1.9477097;
7960,-3.3642259,-10.228881,-11.495573;
7961,0.10896278,17.011814,-4.2904096;
7962,14.9006605,18.34661,1.4165162;
7963,-2.7921712,8.62168,4.671779;
7964,7.164303,0.23154591,1.4573772;
7965,-1.607201,18.659876,-3.336985;
7966,3.759216,19.57244,4.5219555;
7967,-3.9090397,14.560152,-5.597963;
7968,17.965239,18.38747,0.6537767;
7969,-2.7513103,12.026767,3.568531;
7970,1.0760075,16.589584,-6.4015636;
7971,-1.2258313,19.57244,4.2495484;
7972,5.597963,13.947236,13.525005;
7973,4.862464,10.419566,-4.630918;
7974,9.507003,12.789507,5.09401;
7975,9.00305,2.4108016,2.3426998;
7976,2.3426998,3.0237172,3.759216;
7977,-0.88532263,19.57244,5.7477865;
7978,-4.099725,14.750836,-8.19945;
7979,6.1291566,18.38747,-0.14982383;
7980,7.3141265,11.495573,4.6036777;
7981,9.507003,0.88532263,0.7627395;
7982,4.8216033,19.000385,1.4573772;
7983,7.082581,14.560152,10.310603;
7984,3.3778462,7.246025,-3.3642259;
7985,-4.5900574,10.841797,3.445948;
7986,6.8237944,1.3075534,1.3756552;
7987,8.62168,8.730643,-0.23154591;
7988,13.211738,18.578154,2.6014864;
7989,7.0553403,12.912089,0.61291564;
7990,-7.43671,14.015338,3.718355;
7991,5.434519,0.53119355,1.879608;
7992,12.789507,18.237646,3.3778462;
7993,-4.671779,11.141444,-3.486809;
7994,1.56634,1.6889231,-8.471856;
7995,4.0588636,11.645397,6.469665;
7996,10.228881,1.8387469,1.0760075;
7997,5.6252036,17.270601,-6.2108784;
7998,-7.3549876,19.531578,6.0201936;
7999,-3.255263,-6.2789803,-7.273266;
8000,-0.9942854,10.337844,4.1814466;
8001,11.727119,-0.27240697,0.040861044;
8002,4.7126403,17.543009,7.1234417;
8003,1.607201,4.7126403,-2.9556155;
8004,17.270601,16.208214,0.7627395;
8005,-3.7864566,9.507003,4.6036777;
8006,9.847511,0.38136974,-0.27240697;
8007,-5.5162406,18.850561,-5.325556;
8008,4.3312707,19.231932,2.8330324;
8009,-0.08172209,7.6273947,-0.61291564;
8010,4.5219555,7.1234417,-1.525479;
8011,-4.399372,11.917805,3.9090397;
8012,1.1168685,7.8589406,4.1814466;
8013,13.293459,18.04696,3.0237172;
8014,0.8036005,4.944186,2.1792557;
8015,-3.5276701,16.467001,-6.3198414;
8016,15.4046135,19.000385,-1.1168685;
8017,-4.7535014,8.962189,4.6036777;
8018,9.765789,0.313268,1.0351465;
8019,-7.8180795,19.57244,-4.9850473;
8020,-0.38136974,17.352324,-3.1463003;
8021,15.091345,18.918663,-0.3405087;
8022,-2.5333846,10.119919,3.9499009;
8023,10.923519,0.14982383,-0.23154591;
8024,6.2108784,6.5922484,1.2258313;
8025,-7.5456724,-11.223166,-8.921328;
8026,1.56634,15.241169,0.27240697;
8027,12.4489975,17.161638,-4.1814466;
8028,-5.012288,9.112013,2.1792557;
8029,6.238119,3.5957718,2.7649305;
8030,-7.43671,19.422615,-2.3018389;
8031,10.378705,11.495573,5.5571017;
8032,-7.164303,-4.4810944,-4.7535014;
8033,-0.7218784,15.023244,-1.6889231;
8034,9.384419,14.560152,-2.5606253;
8035,-6.469665,11.114203,2.9147544;
8036,1.334794,2.9556155,4.944186;
8037,-0.38136974,19.531578,4.7943625;
8038,-6.0474343,-6.469665,-3.0645783;
8039,-6.851035,-2.5333846,-4.2086873;
8040,2.0294318,5.597963,-2.7513103;
8041,12.980191,13.824653,4.372132;
8042,9.043911,2.3018389,1.1441092;
8043,5.47538,16.276316,-5.407278;
8044,-5.053149,19.57244,5.8976107;
8045,13.906375,15.826844,2.3018389;
8046,-7.04172,-7.04172,-2.5606253;
8047,3.7864566,14.9006605,5.284695;
8048,4.4810944,5.8567495,-0.5720546;
8049,11.073342,12.721405,5.053149;
8050,-4.903325,10.841797,2.070293;
8051,4.7126403,1.7978859,5.325556;
8052,-9.575105,19.57244,4.2495484;
8053,-0.0,1.5390993,1.7570249;
8054,-3.1054392,2.070293,3.0237172;
8055,6.973618,4.372132,-1.879608;
8056,13.375181,17.66559,-2.1792557;
8057,-7.246025,9.915613,3.405087;
8058,11.141444,0.42223078,0.7627395;
8059,1.8387469,17.965239,-1.0760075;
8060,6.5513873,10.61025,4.440233;
8061,-1.6480621,-6.5922484,-5.6252036;
8062,-1.879608,11.114203,4.8216033;
8063,9.384419,1.7978859,0.040861044;
8064,-6.6331096,19.57244,-4.2086873;
8065,13.633968,17.692831,-0.9942854;
8066,-5.243834,-10.419566,-8.158588;
8067,6.0882955,9.00305,0.38136974;
8068,6.2108784,12.176591,-3.173541;
8069,-5.597963,11.304889,3.405087;
8070,11.836082,0.53119355,0.53119355;
8071,-0.42223078,18.727978,-5.434519;
8072,0.313268,19.57244,3.718355;
8073,8.962189,9.765789,3.8273177;
8074,4.944186,11.536434,-2.3018389;
8075,14.137921,15.213928,3.5957718;
8076,5.366417,6.891896,4.8216033;
8077,-5.243834,19.57244,3.759216;
8078,17.24336,16.548723,3.759216;
8079,4.862464,13.33432,4.630918;
8080,3.9499009,8.471856,-3.173541;
8081,-5.6660647,13.143636,3.173541;
8082,3.568531,2.3426998,5.053149;
8083,2.4516625,9.997335,-0.040861044;
8084,9.656827,17.965239,1.6480621;
8085,-5.7477865,-7.5865335,-5.5162406;
8086,1.56634,16.08563,5.2165933;
8087,12.830367,17.474907,-1.6480621;
8088,-5.407278,8.730643,2.5333846;
8089,2.4108016,4.0588636,4.1814466;
8090,-0.6946377,19.504337,3.173541;
8091,-5.597963,-5.7477865,-3.5276701;
8092,2.3426998,14.7916975,11.141444;
8093,4.5628166,10.269742,-3.405087;
8094,-5.5571017,11.75436,3.9499009;
8095,2.7240696,1.6889231,4.0588636;
8096,-5.8158884,19.57244,5.8567495;
8097,-5.7477865,-3.214402,0.42223078;
8098,0.46309182,13.797412,11.958665;
8099,5.829509,-1.1168685,-3.5957718;
8100,14.519291,18.8097,0.61291564;
8101,1.879608,5.6660647,4.2904096;
8102,2.7649305,2.7921712,4.862464;
8103,-6.782933,19.57244,3.8681788;
8104,-1.2258313,0.23154591,1.4982382;
8105,-2.5333846,10.841797,9.656827;
8106,6.5922484,-1.1849703,-3.1054392;
8107,-3.636633,12.598822,4.7535014;
8108,6.3607025,2.6014864,1.4165162;
8109,-8.499097,19.57244,-3.1463003;
8110,5.5162406,7.7363577,2.982856;
8111,-5.597963,-12.5579605,-11.686258;
8112,-0.5720546,14.2877445,-4.2904096;
8113,11.563675,19.340895,0.14982383;
8114,-0.040861044,7.5865335,5.5162406;
8115,5.5571017,2.1111538,2.2201166;
8116,6.5922484,10.147159,0.46309182;
8117,-8.19945,-7.246025,-8.308413;
8118,-0.040861044,12.762266,-1.525479;
8119,17.311462,16.657684,-0.42223078;
8120,-6.701211,11.958665,3.759216;
8121,8.580819,1.6889231,0.6946377;
8122,-9.152874,-4.630918,-5.09401;
8123,-5.012288,14.2877445,-9.724928;
8124,6.238119,-3.0237172,-0.95342433;
8125,8.730643,18.305748,-2.7921712;
8126,-4.3312707,11.114203,3.0237172;
8127,11.958665,2.4108016,1.9477097;
8128,-3.5276701,16.507862,-4.1814466;
8129,8.471856,-0.8036005,-3.3642259;
8130,-4.671779,11.604536,3.9499009;
8131,8.349273,3.0645783,3.0645783;
8132,-5.47538,19.57244,5.434519;
8133,17.815414,17.883516,2.7649305;
8134,-0.040861044,8.349273,0.53119355;
8135,1.9477097,8.049625,-3.405087;
8136,-4.5900574,10.882658,2.3699405;
8137,3.9090397,0.040861044,3.6774938;
8138,-12.258313,19.57244,0.040861044;
8139,14.369467,19.109348,1.9885708;
8140,9.724928,17.352324,-0.14982383;
8141,-9.847511,13.525005,3.5957718;
8142,9.997335,3.173541,3.5276701;
8143,2.152015,19.57244,2.5333846;
8144,-6.510526,0.92618364,1.1849703;
8145,1.7978859,11.454713,1.0351465;
8146,9.302697,15.091345,-3.8681788;
8147,3.336985,13.0619135,3.5957718;
8148,10.269742,3.445948,1.920469;
8149,5.829509,16.630445,-6.973618;
8150,16.126492,13.988097,1.1168685;
8151,-6.782933,-12.176591,-11.645397;
8152,-4.2495484,15.363752,-7.205164;
8153,14.437569,18.278507,0.23154591;
8154,2.3426998,7.6954966,5.175732;
8155,5.6252036,13.184497,-0.7218784;
8156,12.789507,18.727978,2.3426998;
8157,-3.445948,-10.419566,-8.62168;
8158,0.3405087,15.050485,-2.1111538;
8159,5.366417,16.780268,-2.070293;
8160,-4.0588636,11.686258,4.0180025;
8161,2.4108016,-0.42223078,4.1814466;
8162,-6.851035,19.57244,4.9850473;
8163,16.930092,16.43976,2.7921712;
8164,-6.510526,-8.008764,-5.407278;
8165,3.1054392,10.691973,4.7535014;
8166,9.847511,2.1792557,0.38136974;
8167,2.6832085,14.246883,-3.173541;
8168,-4.140586,19.57244,5.7886477;
8169,-4.2086873,0.313268,1.2666923;
8170,-4.372132,4.140586,5.09401;
8171,10.732834,8.430995,-2.4108016;
8172,6.742072,12.14935,4.3312707;
8173,10.119919,3.255263,2.4925237;
8174,3.0645783,16.249075,-6.5513873;
8175,-8.308413,19.57244,5.5571017;
8176,15.173067,10.119919,3.445948;
8177,-9.084772,-0.7627395,-1.6889231;
8178,13.525005,10.119919,3.636633;
8179,4.399372,6.3198414,5.243834;
8180,8.240311,11.141444,-1.607201;
8181,-13.252599,19.57244,2.4925237;
8182,4.630918,6.5922484,3.0237172;
8183,-6.891896,-2.4108016,-2.7240696;
8184,6.932757,14.437569,-2.9556155;
8185,9.765789,12.408136,5.09401;
8186,8.812365,1.6889231,1.7297841;
8187,1.4165162,18.34661,-5.434519;
8188,-5.8976107,-11.032481,-11.372991;
8189,4.671779,15.322891,12.258313;
8190,5.597963,7.6273947,-3.405087;
8191,16.86199,13.947236,2.7240696;
8192,-1.879608,9.043911,4.140586;
8193,8.240311,0.84446156,1.334794;
8194,4.2086873,10.228881,1.1168685;
8195,-7.6546354,-0.5720546,-0.38136974;
8196,1.6889231,0.7218784,-3.8273177;
8197,7.5456724,11.223166,4.099725;
8198,9.425281,3.2961242,2.6423476;
8199,4.4810944,15.704261,-3.9090397;
8200,-7.9270425,19.57244,3.336985;
8201,15.6634,15.5135765,3.990762;
8202,2.1792557,13.988097,-2.7921712;
8203,15.132206,18.428331,-1.4165162;
8204,-3.2961242,10.269742,2.7649305;
8205,9.615966,-0.6946377,0.38136974;
8206,2.7649305,5.7886477,2.3699405;
8207,4.9850473,4.862464,3.5957718;
8208,-4.8216033,0.95342433,5.7477865;
8209,4.4810944,11.795221,0.53119355;
8210,5.7886477,12.912089,6.0474343;
8211,8.499097,1.8387469,1.7978859;
8212,3.486809,14.601013,-2.5606253;
8213,-7.4639506,19.57244,1.7978859;
8214,11.182305,17.120777,0.313268;
8215,0.50395286,14.09706,-2.9556155;
8216,12.980191,13.375181,2.7921712;
8217,6.238119,5.09401,4.0588636;
8218,0.040861044,11.34575,-0.6537767;
8219,-5.09401,19.57244,0.46309182;
8220,4.630918,1.334794,3.173541;
8221,-4.671779,13.715691,-3.6774938;
8222,7.1234417,3.486809,-5.284695;
8223,4.2086873,5.829509,6.0474343;
8224,3.1054392,13.906375,-5.053149;
8225,-10.106298,19.57244,6.0474343;
8226,0.38136974,-0.5720546,2.6014864;
8227,-5.434519,4.0588636,3.0645783;
8228,6.5922484,-0.23154591,-1.9885708;
8229,3.990762,11.75436,3.718355;
8230,11.073342,4.372132,2.5606253;
8231,5.434519,-0.3405087,2.8738933;
8232,-6.851035,19.57244,3.5957718;
8233,14.137921,18.305748,3.0645783;
8234,-3.405087,-1.9885708,-0.040861044;
8235,8.662541,15.173067,-3.0237172;
8236,-5.6252036,9.956474,2.7649305;
8237,10.61025,2.982856,2.7921712;
8238,-6.1700177,-8.471856,-8.049625;
8239,3.1463003,12.912089,4.399372;
8240,6.0474343,11.645397,-4.099725;
8241,-5.597963,12.108489,3.336985;
8242,4.903325,1.0760075,4.3312707;
8243,6.1700177,14.982383,-2.9556155;
8244,15.472715,17.079916,3.0237172;
8245,6.0201936,-0.5720546,-3.0645783;
8246,2.5333846,10.923519,5.012288;
8247,9.997335,2.2609777,0.8036005;
8248,4.630918,3.445948,3.405087;
8249,-6.0201936,19.57244,4.140586;
8250,-4.440233,-4.7126403,-0.53119355;
8251,-2.4516625,10.228881,8.662541;
8252,3.1054392,1.4165162,-4.372132;
8253,-4.2904096,12.4489975,4.944186;
8254,8.308413,-0.9125633,0.84446156;
8255,-10.691973,19.57244,-1.1849703;
8256,10.337844,19.531578,1.1849703;
8257,-0.040861044,0.6946377,0.9942854;
8258,3.214402,2.1792557,-4.3312707;
8259,0.6946377,11.536434,5.175732;
8260,11.985906,1.56634,0.14982383;
8261,-7.9270425,-5.8976107,-4.4810944;
8262,0.19068487,17.733692,4.3312707;
8263,7.6273947,15.023244,-2.7513103;
8264,10.800936,10.310603,2.4925237;
8265,4.0180025,5.053149,4.2904096;
8266,6.0882955,1.2258313,4.099725;
8267,-7.8861814,19.57244,-1.4573772;
8268,10.038197,18.891422,1.3756552;
8269,6.4015636,7.504812,2.6832085;
8270,4.2904096,16.208214,9.697687;
8271,3.255263,6.4015636,-3.9771416;
8272,-4.2086873,12.912089,4.5628166;
8273,10.18802,-1.4573772,1.2258313;
8274,13.824653,18.237646,2.3426998;
8275,-1.6889231,12.217452,10.119919;
8276,-0.29964766,-2.1111538,-6.428804;
8277,-0.0,11.114203,5.407278;
8278,7.8180795,1.0760075,1.607201;
8279,-6.891896,19.57244,-3.0237172;
8280,10.038197,19.463476,1.56634;
8281,8.158588,15.704261,-2.5606253;
8282,-5.175732,10.800936,2.3699405;
8283,9.112013,2.7649305,2.7240696;
8284,0.23154591,-0.46309182,1.4573772;
8285,-4.372132,5.2165933,6.3607025;
8286,-3.759216,10.841797,-2.070293;
8287,5.6252036,11.536434,-3.405087;
8288,-6.891896,11.985906,2.4516625;
8289,4.6036777,2.152015,4.7535014;
8290,-6.428804,19.57244,4.7126403;
8291,-3.486809,0.7218784,0.5720546;
8292,-2.3426998,6.238119,8.689782;
8293,-1.1849703,15.6634,-4.5900574;
8294,13.6748295,19.15021,0.50395286;
8295,0.313268,8.689782,5.243834;
8296,9.384419,0.53119355,1.334794;
8297,-7.43671,19.57244,-4.862464;
8298,6.5922484,19.504337,1.3075534;
8299,11.372991,10.18802,4.4810944;
8300,1.8387469,-0.27240697,-5.134871;
8301,10.460427,19.15021,-1.0760075;
8302,-8.008764,11.495573,3.2961242;
8303,4.3312707,2.1792557,5.134871;
8304,-4.4810944,19.57244,5.012288;
8305,-6.0201936,-4.5900574,-0.61291564;
8306,2.3426998,10.841797,8.158588;
8307,5.325556,8.962189,-2.6423476;
8308,14.47843,13.824653,3.759216;
8309,6.0474343,5.829509,5.053149;
8310,1.1168685,15.745122,-3.718355;
8311,15.132206,15.785983,3.445948;
8312,-7.6273947,-9.084772,-10.228881;
8313,-2.4516625,15.704261,-3.2961242;
8314,14.015338,17.474907,2.4925237;
8315,4.4810944,7.504812,4.399372;
8316,9.302697,13.102775,-2.9147544;
8317,15.023244,16.208214,1.607201;
8318,-7.164303,-12.489859,-11.686258;
8319,-0.6946377,14.7916975,-7.014479;
8320,12.639683,19.272793,0.53119355;
8321,-0.53119355,8.539958,2.8330324;
8322,2.8738933,4.944186,3.255263;
8323,-5.597963,19.531578,-4.862464;
8324,12.217452,12.830367,4.440233;
8325,-5.284695,-7.8861814,-8.049625;
8326,1.4982382,13.102775,-3.0645783;
8327,14.941522,15.554437,3.2961242;
8328,5.8567495,5.9793324,4.4810944;
8329,5.5571017,14.437569,-3.5957718;
8330,13.947236,14.246883,-0.0;
8331,-7.5456724,-11.495573,-12.721405;
8332,-7.4639506,12.721405,-1.8387469;
8333,10.501288,18.578154,-0.53119355;
8334,0.61291564,7.5456724,4.4810944;
8335,8.158588,-1.2258313,2.7921712;
8336,-1.525479,13.484144,-3.336985;
8337,17.352324,16.3989,1.334794;
8338,-4.5628166,10.800936,4.1814466;
8339,9.384419,-0.040861044,1.4982382;
8340,-10.56939,19.57244,0.53119355;
8341,11.917805,19.231932,0.95342433;
8342,7.504812,13.184497,4.399372;
8343,4.440233,2.3426998,-5.243834;
8344,-5.012288,11.182305,5.47538;
8345,4.6036777,-0.19068487,4.1814466;
8346,1.7978859,10.991621,-1.1441092;
8347,13.525005,15.241169,2.7649305;
8348,2.5606253,14.628253,-3.1463003;
8349,16.3989,17.161638,-1.1849703;
8350,-7.7363577,14.246883,6.851035;
8351,2.7649305,-0.19068487,3.3778462;
8352,-6.469665,-7.4639506,-5.5162406;
8353,5.7477865,12.026767,3.7864566;
8354,2.7649305,7.8589406,-3.405087;
8355,-7.246025,12.871228,4.903325;
8356,9.915613,-1.4165162,0.3405087;
8357,2.3018389,17.965239,-4.2086873;
8358,-1.6480621,19.531578,3.8681788;
8359,-5.9793324,14.437569,-6.2789803;
8360,13.824653,19.109348,-0.9125633;
8361,-0.9125633,7.5865335,3.255263;
8362,-1.7570249,19.422615,-5.7477865;
8363,-1.1441092,19.531578,3.1463003;
8364,3.3778462,10.95076,11.073342;
8365,0.040861044,-2.6014864,-6.932757;
8366,-4.903325,11.495573,4.5219555;
8367,6.851035,1.7297841,2.3426998;
8368,4.8216033,17.352324,-4.5900574;
8369,-3.255263,19.57244,4.7943625;
8370,9.697687,14.246883,4.0588636;
8371,-0.0,10.991621,-4.3312707;
8372,16.698545,16.276316,1.3075534;
8373,-1.334794,6.0882955,3.255263;
8374,-8.430995,19.57244,-2.2609777;
8375,9.275456,18.537292,1.607201;
8376,-3.568531,-8.771504,-8.240311;
8377,-8.730643,7.3549876,-3.445948;
8378,7.668256,16.970953,-1.1441092;
8379,2.070293,7.9679036,2.9147544;
8380,5.053149,0.313268,3.214402;
8381,0.27240697,19.231932,-2.3426998;
8382,1.6889231,18.8097,3.1463003;
8383,4.8216033,10.760075,-1.6889231;
8384,-4.372132,16.630445,4.2904096;
8385,4.0588636,4.5628166,4.9850473;
8386,-10.691973,19.57244,1.2258313;
8387,8.921328,18.727978,1.1441092;
8388,4.099725,10.61025,4.8216033;
8389,5.053149,5.09401,-3.336985;
8390,-5.597963,12.912089,5.7477865;
8391,7.6954966,-0.040861044,1.1849703;
8392,-3.8681788,19.57244,-2.4516625;
8393,6.782933,18.496431,2.3699405;
8394,5.5162406,-0.53119355,-5.407278;
8395,0.84446156,12.408136,5.597963;
8396,8.921328,1.3075534,0.53119355;
8397,-5.202973,-10.882658,-9.956474;
8398,1.56634,11.304889,9.384419;
8399,1.4573772,2.4108016,-4.5628166;
8400,-3.8273177,11.495573,4.671779;
8401,10.147159,1.0760075,0.3405087;
8402,1.7297841,18.659876,-5.175732;
8403,-4.140586,19.57244,3.3778462;
8404,11.182305,11.536434,2.8738933;
8405,-3.9499009,6.8237944,-0.42223078;
8406,4.9850473,12.367276,-2.6014864;
8407,-7.7363577,11.536434,2.7921712;
8408,-5.5571017,19.57244,-4.671779;
8409,-4.7535014,-11.141444,-10.56939;
8410,4.903325,17.733692,-2.7513103;
8411,13.947236,19.041246,-1.525479;
8412,-6.701211,9.425281,3.255263;
8413,10.079058,0.92618364,-0.08172209;
8414,-1.0351465,18.46919,-4.671779;
8415,5.134871,19.463476,0.6946377;
8416,13.021052,13.484144,4.7535014;
8417,6.238119,6.238119,-3.405087;
8418,-7.1234417,9.234595,3.7864566;
8419,5.6660647,4.7943625,2.5333846;
8420,3.990762,12.9529505,-2.7240696;
8421,11.563675,18.278507,1.3075534;
8422,-4.9850473,-7.8180795,-8.580819;
8423,2.3699405,11.876944,-0.9125633;
8424,6.0201936,17.270601,-1.920469;
8425,-4.1814466,7.246025,3.0645783;
8426,0.88532263,3.9499009,4.372132;
8427,-4.5900574,19.531578,2.6014864;
8428,-5.6660647,-3.1054392,-0.53119355;
8429,0.08172209,12.14935,12.980191;
8430,12.489859,8.349273,0.313268;
8431,9.615966,19.272793,-0.29964766;
8432,-3.8273177,11.985906,4.6036777;
8433,4.671779,-0.3405087,3.173541;
8434,-8.049625,19.57244,0.38136974;
8435,13.143636,18.38747,3.2961242;
8436,7.43671,15.935807,9.765789;
8437,0.8036005,15.213928,-2.1383946;
8438,15.5135765,16.017529,1.2666923;
8439,3.2961242,3.336985,1.4573772;
8440,4.630918,0.88532263,3.255263;
8441,12.789507,15.636159,2.8738933;
8442,-1.6480621,7.504812,10.18802;
8443,7.8861814,12.830367,-3.255263;
8444,13.947236,14.628253,0.38136974;
8445,-3.568531,8.281172,3.445948;
8446,4.2495484,-0.6946377,0.7218784;
8447,3.5276701,19.19107,-3.405087;
8448,-3.8273177,18.155924,-0.38136974;
8449,6.6331096,13.593107,2.9147544;
8450,0.6537767,16.821129,6.4424243;
8451,-6.782933,-4.0588636,-7.9679036;
8452,-3.568531,3.2961242,2.3426998;
8453,4.4810944,9.575105,1.0760075;
8454,6.2108784,9.00305,0.10896278;
8455,3.7864566,13.293459,-0.08172209;
8456,-4.0180025,17.434046,-2.3018389;
8457,8.076866,7.9679036,-1.3075534;
8458,-0.19068487,-0.46309182,-1.8387469;
8459,4.862464,14.47843,9.765789;
8460,-0.84446156,11.563675,5.053149;
8461,0.46309182,6.3607025,-2.6832085;
8462,-0.7218784,7.504812,2.0294318;
8463,0.7218784,9.656827,1.6480621;
8464,4.2495484,8.771504,-1.525479;
8465,0.6537767,11.141444,0.23154591;
8466,-0.3405087,11.141444,-1.4573772;
8467,0.6537767,8.962189,0.08172209;
8468,1.0351465,8.008764,1.3075534;
8469,0.6537767,10.269742,1.6889231;
8470,0.61291564,9.00305,0.7218784;
8471,1.7570249,8.962189,1.6480621;
8472,2.3018389,9.343558,1.1168685;
8473,1.334794,9.275456,1.1849703;
8474,1.3075534,10.269742,1.0351465;
8475,1.3756552,9.152874,1.920469;
8476,1.6480621,8.539958,0.8036005;
8477,0.9942854,10.119919,0.7218784;
8478,1.4165162,10.732834,1.1441092;
8479,1.4165162,9.915613,0.27240697;
8480,0.61291564,10.119919,0.040861044;
8481,1.3756552,9.80665,-0.46309182;
8482,1.3756552,9.697687,-0.42223078;
8483,2.6423476,9.888372,-0.0;
8484,2.5606253,9.466142,-0.08172209;
8485,1.4573772,10.882658,-0.6537767;
8486,2.4108016,9.534244,-0.50395286;
8487,1.4573772,9.193735,-0.53119355;
